File: Data/P190/P190_02/EIS_08_P190_02_3/2_EIS_08_P190_02_3 20230913 144618.csv
Step number,Repeats,Step name,Elapsed Time  (s),DC Working Electrode (V),DC Current (A),Frequency (Hz),|Z| (Ohms),Phase (deg),Z' (Ohms),-Z" (Ohms),THD (%),Amplitude (A),Amplitude (V),No of Cycles,Duration of Each Frequency (s),IR Compensated DC Working Electrode (V)
2,1,Potentiostatic EIS,0,3.55664,-0.00926374,1000000,2.96223,88.1078,0.0978111,-2.96062,0.624754,0.00334242,0.00990103,1430,0.00143,3.55664
2,1,Potentiostatic EIS,0.226726,3.55657,-0.0103877,794328,2.37038,87.6867,0.0956753,-2.36845,0.873371,0.00418047,0.00990943,1445,0.00181915,3.55657
2,1,Potentiostatic EIS,0.482317,3.55652,-0.011272,630957.375,1.88983,87.175,0.0931413,-1.88754,0.653533,0.00527922,0.00997688,1355,0.00214753,3.55652
2,1,Potentiostatic EIS,0.752688,3.55648,-0.0116475,501187.25,1.50684,87.1916,0.0738284,-1.50503,0.796949,0.00661697,0.00997072,1385,0.00276344,3.55648
2,1,Potentiostatic EIS,1.03105,3.55645,-0.0122824,398107,1.20466,86.316,0.0774039,-1.20217,0.85269,0.00827478,0.00996833,1400,0.00351664,3.55645
2,1,Potentiostatic EIS,1.33054,3.55639,-0.0132999,316228,0.958293,85.8501,0.0693486,-0.95578,0.809329,0.0103761,0.00994339,1370,0.00433232,3.55639
2,1,Potentiostatic EIS,1.80798,3.55634,-0.0139741,251189,0.768252,84.923,0.0679859,-0.765238,1.00302,0.012762,0.00980465,1340,0.00533464,3.55634
2,1,Potentiostatic EIS,2.21109,3.55627,-0.0150446,199526,0.612603,84.5984,0.0576681,-0.609883,0.953043,0.0161799,0.00991188,1355,0.00679109,3.55627
2,1,Potentiostatic EIS,2.67297,3.55619,-0.0163302,158489,0.492449,83.4298,0.056346,-0.489215,1.0943,0.0202219,0.0099583,1360,0.00858102,3.55619
2,1,Potentiostatic EIS,3.42572,3.55613,-0.0172775,125893,0.395795,82.4757,0.051828,-0.392387,1.14897,0.0252085,0.00997743,1370,0.0108823,3.55613
2,1,Potentiostatic EIS,4.04233,3.55607,-0.0181814,100000,0.316549,81.2231,0.0483015,-0.312842,1.2891,0.0312214,0.00988321,1370,0.0137,3.55607
2,1,Potentiostatic EIS,4.71215,3.55597,-0.019952,79432.8,0.255059,79.5562,0.0462348,-0.250833,1.96721,0.0391609,0.00998835,1365,0.0171843,3.55597
2,1,Potentiostatic EIS,4.95602,3.55593,-0.0207809,63095.7,0.205015,77.9052,0.0429567,-0.200464,1.49792,0.0482136,0.00988452,1290,0.0204451,3.55593
2,1,Potentiostatic EIS,5.20369,3.55587,-0.0218181,50118.75,0.165761,75.6255,0.0411518,-0.160572,1.66648,0.0587267,0.00973447,1025,0.0204514,3.55587
2,1,Potentiostatic EIS,5.57501,3.55582,-0.0218838,39810.7,0.134459,72.7,0.0399847,-0.128376,1.70887,0.0740384,0.00995513,815,0.0204719,3.55582
2,1,Potentiostatic EIS,5.9441,3.5564,-0.0120559,31622.8,0.110433,69.3168,0.0390051,-0.103316,5.03407,0.0907095,0.0100174,645,0.0203967,3.5564
2,1,Potentiostatic EIS,6.1751,3.55675,-0.00598555,25118.9,0.0908087,65.1979,0.0380929,-0.0824327,5.64623,0.110935,0.0100738,510,0.0203034,3.55675
2,1,Potentiostatic EIS,6.41293,3.55677,-0.00534929,19952.6,0.075326,60.5357,0.0370515,-0.0655835,6.2236,0.133508,0.0100566,405,0.0202981,3.55677
2,1,Potentiostatic EIS,6.62432,3.5568,-0.0051512,15848.9,0.0634442,55.3385,0.0360824,-0.0521845,6.41581,0.153351,0.00972953,320,0.0201906,3.5568
2,1,Potentiostatic EIS,6.83103,3.55684,-0.00444117,12589.2,0.054859,49.302,0.035772,-0.0415918,6.38262,0.180494,0.00990177,255,0.0202554,3.55684
2,1,Potentiostatic EIS,7.13698,3.5568,-0.00407834,9999.98,0.0486673,43.1029,0.0355333,-0.0332549,2.95937,0.205469,0.00999963,307,0.0307001,3.5568
2,1,Potentiostatic EIS,7.35011,3.55682,-0.00383354,7943.27,0.0440264,37.3281,0.0350087,-0.0266966,3.53395,0.238657,0.0105072,244,0.0307178,3.55682
2,1,Potentiostatic EIS,7.56034,3.55684,-0.0035587,6309.57,0.0397791,30.7338,0.0341922,-0.0203291,3.94276,0.260561,0.0103649,193,0.0305885,3.55684
2,1,Potentiostatic EIS,7.77337,3.55686,-0.00304729,5011.87,0.037981,24.0294,0.0346894,-0.0154661,3.92312,0.267105,0.0101449,153,0.0305276,3.55686
2,1,Potentiostatic EIS,7.9394,3.55689,-0.00270333,3981.07,0.0369758,18.7046,0.0350229,-0.0118577,3.71795,0.279567,0.0103372,122,0.0306451,3.55689
2,1,Potentiostatic EIS,8.10712,3.55689,-0.00252841,3162.27,0.0363546,14.3707,0.0352171,-0.00902304,3.49082,0.285965,0.0103962,97,0.0306742,3.55689
2,1,Potentiostatic EIS,8.27549,3.5569,-0.00236044,2511.88,0.0360347,10.6734,0.0354113,-0.00667403,3.23134,0.28326,0.0102072,77,0.0306543,3.5569
2,1,Potentiostatic EIS,8.39974,3.55689,-0.00257457,1995.26,0.035944,7.57228,0.0356306,-0.00473659,3.01348,0.256967,0.00923643,61,0.0305725,3.55689
2,1,Potentiostatic EIS,8.52338,3.5569,-0.0023294,1584.89,0.0360285,5.02004,0.0358903,-0.00315265,2.7012,0.288124,0.0103807,48,0.030286,3.5569
2,1,Potentiostatic EIS,8.64702,3.55691,-0.00211432,1258.92,0.0362569,2.93957,0.0362092,-0.00185935,2.54462,0.282871,0.010256,38,0.0301845,3.55691
2,1,Potentiostatic EIS,8.77148,3.55692,-0.00198115,999.999,0.0365193,1.14813,0.036512,-0.000731749,2.41546,0.277472,0.0101331,30,0.03,3.55692
2,1,Potentiostatic EIS,8.89523,3.55693,-0.00187129,794.328,0.0368987,-0.287358,0.0368982,0.000185059,2.31239,0.272662,0.0100609,24,0.0302142,3.55693
2,1,Potentiostatic EIS,8.97555,3.55692,-0.00205522,630.956,0.0373111,-1.53363,0.0372977,0.000998585,2.2236,0.23095,0.00861699,19,0.030113,3.55692
2,1,Potentiostatic EIS,9.05508,3.55692,-0.00186836,501.187,0.0377767,-2.5752,0.0377385,0.00169733,2.06218,0.230802,0.00871893,15,0.029929,3.55692
2,1,Potentiostatic EIS,9.13471,3.55693,-0.00176321,398.107,0.0382757,-3.49071,0.0382046,0.00233048,1.88206,0.24031,0.00919801,12,0.0301427,3.55693
2,1,Potentiostatic EIS,9.21386,3.55692,-0.00171819,316.228,0.0388656,-4.30587,0.0387559,0.00291807,1.67955,0.245025,0.00952306,9,0.0284605,3.55692
2,1,Potentiostatic EIS,9.29402,3.55692,-0.00186596,251.189,0.0395061,-5.0044,0.0393555,0.00344621,1.46528,0.246114,0.009723,8,0.0318486,3.55692
2,1,Potentiostatic EIS,9.38259,3.55692,-0.0018009,199.526,0.040219,-5.61196,0.0400263,0.00393305,1.25649,0.244575,0.00983657,8,0.0400951,3.55692
2,1,Potentiostatic EIS,9.48106,3.55692,-0.00170137,158.489,0.0409824,-6.13801,0.0407475,0.00438199,1.03728,0.24173,0.00990668,8,0.0504766,3.55692
2,1,Potentiostatic EIS,9.59507,3.55693,-0.00163458,125.892,0.041794,-6.5803,0.0415186,0.00478941,0.881155,0.237857,0.00994099,8,0.0635464,3.55693
2,1,Potentiostatic EIS,9.7233,3.55693,-0.0017477,100,0.0426916,-6.95491,0.0423775,0.00516945,0.664504,0.233234,0.00995716,8,0.08,3.55693
2,1,Potentiostatic EIS,9.8754,3.55693,-0.00153526,79.4327,0.0436393,-7.17192,0.0432979,0.00544824,0.5551,0.228268,0.00996148,8,0.100714,3.55693
2,1,Potentiostatic EIS,10.056,3.55693,-0.00175139,63.0956,0.0446468,-7.30382,0.0442845,0.00567598,0.473084,0.223205,0.00996539,8,0.126792,3.55693
2,1,Potentiostatic EIS,10.27,3.55693,-0.00141552,50.1186,0.0456676,-7.39822,0.0452875,0.00588038,0.368935,0.214708,0.00980522,8,0.159621,3.55693
2,1,Potentiostatic EIS,10.5267,3.55691,-0.00215374,39.8107,0.046683,-7.28835,0.0463058,0.00592235,0.290541,0.210523,0.00982786,8,0.200951,3.55691
2,1,Potentiostatic EIS,10.6697,3.55691,-0.00288585,31.6228,0.0476995,-7.16949,0.0473265,0.00595313,0.258538,0.208102,0.00992641,2,0.0632456,3.55691
2,1,Potentiostatic EIS,10.8325,3.55694,-0.00211402,25.1188,0.0487247,-6.86612,0.0483753,0.00582503,0.221567,0.198607,0.009677,2,0.0796217,3.55694
2,1,Potentiostatic EIS,11.0326,3.55693,-0.00201593,19.9526,0.0497103,-6.51415,0.0493894,0.00563957,0.182879,0.196835,0.00978474,2,0.100238,3.55693
2,1,Potentiostatic EIS,11.2796,3.55694,-0.0020607,15.8489,0.0505987,-6.12153,0.0503102,0.00539573,0.185759,0.194668,0.00984995,2,0.126192,3.55694
2,1,Potentiostatic EIS,11.586,3.55692,-0.0023707,12.5892,0.051446,-5.65958,0.0511952,0.00507349,0.181869,0.192228,0.00988936,2,0.158866,3.55692
2,1,Potentiostatic EIS,11.967,3.55694,-0.00210117,9.99998,0.0522158,-5.20892,0.0520001,0.00474054,0.179716,0.189985,0.00992022,2,0.2,3.55694
2,1,Potentiostatic EIS,12.4409,3.55693,-0.00224707,7.94328,0.0528747,-4.7121,0.052696,0.0043436,0.155525,0.187998,0.00994034,2,0.251785,3.55693
2,1,Potentiostatic EIS,13.0345,3.55693,-0.00234832,6.30957,0.0534544,-4.25792,0.0533069,0.0039688,0.164235,0.186121,0.00994898,2,0.316979,3.55693
2,1,Potentiostatic EIS,13.7713,3.55693,-0.00225356,5.01186,0.0539257,-3.81714,0.0538061,0.00358997,0.174492,0.184749,0.00996272,2,0.399053,3.55693
2,1,Potentiostatic EIS,14.6986,3.55693,-0.00231292,3.98106,0.054348,-3.43543,0.0542503,0.00325673,0.146495,0.183298,0.0099619,2,0.502378,3.55693
2,1,Potentiostatic EIS,15.8644,3.55694,-0.00228717,3.16227,0.0547315,-3.10953,0.0546509,0.0029689,0.19273,0.18206,0.00996442,2,0.632458,3.55694
2,1,Potentiostatic EIS,17.3275,3.55694,-0.00231614,2.51188,0.0550436,-2.79917,0.0549779,0.00268807,0.190677,0.181032,0.00996462,2,0.796216,3.55694
2,1,Potentiostatic EIS,19.1672,3.55694,-0.00228823,1.99526,0.0553127,-2.53132,0.0552588,0.00244291,0.148673,0.180233,0.00996917,2,1.00238,3.55694
2,1,Potentiostatic EIS,21.4765,3.55693,-0.00250136,1.58489,0.0555502,-2.32675,0.0555044,0.00225524,0.163116,0.179595,0.00997654,2,1.26192,3.55693
2,1,Potentiostatic EIS,24.3816,3.55694,-0.00232929,1.25892,0.055752,-2.17373,0.0557119,0.00211465,0.149892,0.178916,0.00997495,2,1.58866,3.55694
2,1,Potentiostatic EIS,28.034,3.55694,-0.00230538,0.999998,0.0559229,-2.07411,0.0558863,0.00202397,0.16597,0.178383,0.00997569,2,2,3.55694
2,1,Potentiostatic EIS,32.6294,3.55694,-0.00243037,0.794327,0.0560893,-1.97372,0.056056,0.00193178,0.144402,0.177912,0.00997895,2,2.51785,3.55694
2,1,Potentiostatic EIS,38.408,3.55694,-0.00229049,0.630956,0.0562547,-1.94865,0.0562222,0.00191287,0.163721,0.177372,0.009978,2,3.16979,3.55694
2,1,Potentiostatic EIS,45.6815,3.55693,-0.00222233,0.501186,0.0564698,-1.91289,0.0564384,0.00188496,0.183002,0.176745,0.00998078,2,3.99054,3.55693
2,1,Potentiostatic EIS,54.8369,3.55694,-0.00227481,0.398106,0.0566715,-1.95713,0.0566385,0.00193543,0.152673,0.175909,0.00996901,2,5.02379,3.55694
2,1,Potentiostatic EIS,66.3533,3.55694,-0.0020912,0.316227,0.056791,-2.00856,0.0567561,0.00199045,0.153481,0.175662,0.00997603,2,6.32457,3.55694
2,1,Potentiostatic EIS,80.8476,3.55694,-0.00198305,0.251188,0.0569437,-2.105,0.0569052,0.00209159,0.175794,0.175132,0.00997264,2,7.96216,3.55694
2,1,Potentiostatic EIS,99.0922,3.55695,-0.00209682,0.199526,0.0570663,-2.24274,0.0570225,0.00223319,0.162463,0.174756,0.00997265,2,10.0238,3.55695
2,1,Potentiostatic EIS,122.064,3.55695,-0.00162228,0.158489,0.0571954,-2.41341,0.0571446,0.00240846,0.152467,0.174284,0.00996826,2,12.6192,3.55695
2,1,Potentiostatic EIS,150.976,3.55694,-0.00172099,0.125892,0.0576057,-2.64372,0.0575443,0.00265707,0.147495,0.173242,0.00997971,2,15.8866,3.55694
2,1,Potentiostatic EIS,187.367,3.55696,-0.00217231,0.0999997,0.0580451,-2.90411,0.0579706,0.00294083,0.829825,0.171855,0.009975,2,20.0001,3.55696