File: Data/P190/P190_02/EIS_08_P190_02_2/2_EIS_08_P190_02_2 20230913 142851.csv
Step number,Repeats,Step name,Elapsed Time  (s),DC Working Electrode (V),DC Current (A),Frequency (Hz),|Z| (Ohms),Phase (deg),Z' (Ohms),-Z" (Ohms),THD (%),Amplitude (A),Amplitude (V),No of Cycles,Duration of Each Frequency (s),IR Compensated DC Working Electrode (V)
2,1,Potentiostatic EIS,0,3.55841,-0.0127802,1000000,2.43734,87.7667,0.0949788,-2.43549,0.641089,0.00408439,0.00995515,1430,0.00143,3.55841
2,1,Potentiostatic EIS,0.249025,3.55833,-0.0141007,794328,1.95393,87.3835,0.0891986,-1.95189,0.917506,0.0051094,0.00998343,1445,0.00181915,3.55833
2,1,Potentiostatic EIS,0.511879,3.55828,-0.0148922,630957.375,1.56061,86.9341,0.0834671,-1.55837,0.774895,0.0063752,0.00994917,1355,0.00214753,3.55828
2,1,Potentiostatic EIS,0.780096,3.55824,-0.0160994,501187.25,1.24454,86.9749,0.0656786,-1.24281,0.836349,0.00801522,0.00997526,1385,0.00276344,3.55824
2,1,Potentiostatic EIS,1.05755,3.55818,-0.0172432,398107,0.99674,86.149,0.0669437,-0.994489,0.94769,0.00998776,0.0099552,1400,0.00351664,3.55818
2,1,Potentiostatic EIS,1.39238,3.55814,-0.0179458,316228,0.792616,85.7865,0.0582359,-0.790473,0.987146,0.0123006,0.00974954,1370,0.00433232,3.55814
2,1,Potentiostatic EIS,1.75691,3.55808,-0.0191494,251189,0.637309,85.0278,0.0552374,-0.63491,1.11962,0.0156517,0.009975,1340,0.00533464,3.55808
2,1,Potentiostatic EIS,2.16238,3.55799,-0.0208875,199526,0.50843,84.6458,0.047443,-0.506211,1.27654,0.0195118,0.00992038,1355,0.00679109,3.55799
2,1,Potentiostatic EIS,2.70326,3.55791,-0.0224328,158489,0.408529,83.6637,0.0450868,-0.406034,1.44951,0.0243888,0.00996357,1360,0.00858102,3.55791
2,1,Potentiostatic EIS,3.23339,3.55781,-0.0245133,125893,0.329156,82.8851,0.0407694,-0.326621,1.60604,0.0299517,0.00985864,1370,0.0108823,3.55781
2,1,Potentiostatic EIS,3.90382,3.55771,-0.0263605,100000,0.263837,81.893,0.0372069,-0.261201,1.58954,0.0377643,0.00996364,1370,0.0137,3.55771
2,1,Potentiostatic EIS,4.57599,3.55763,-0.0274732,79432.8,0.212697,80.6186,0.0346708,-0.209852,2.43214,0.0459594,0.00977511,1365,0.0171843,3.55763
2,1,Potentiostatic EIS,4.86184,3.55755,-0.0299541,63095.7,0.170741,79.3822,0.0314602,-0.167818,1.8114,0.0584188,0.00997451,1290,0.0204451,3.55755
2,1,Potentiostatic EIS,5.26243,3.55812,-0.0162271,50118.75,0.137697,77.5168,0.0297637,-0.134441,4.29228,0.072307,0.00995645,1025,0.0204514,3.55812
2,1,Potentiostatic EIS,5.48471,3.55811,-0.0165907,39810.7,0.111339,75.2052,0.0284314,-0.107648,5.11598,0.0900045,0.010021,815,0.0204719,3.55811
2,1,Potentiostatic EIS,5.72104,3.5581,-0.0166398,31622.8,0.0908486,72.4045,0.0274631,-0.0865982,5.73027,0.111,0.0100842,645,0.0203967,3.5581
2,1,Potentiostatic EIS,5.95209,3.55844,-0.00919032,25118.9,0.0741403,69.1508,0.0263872,-0.0692856,6.33556,0.136388,0.0101118,510,0.0203034,3.55844
2,1,Potentiostatic EIS,6.19023,3.55847,-0.0086183,19952.6,0.0608525,65.1518,0.0255712,-0.055219,6.88926,0.166066,0.0101057,405,0.0202981,3.55847
2,1,Potentiostatic EIS,6.41919,3.55853,-0.00757433,15848.9,0.0502762,60.459,0.0247885,-0.0437405,7.17976,0.199343,0.0100222,320,0.0201906,3.55853
2,1,Potentiostatic EIS,6.64282,3.55855,-0.00661659,12589.2,0.042645,55.0236,0.0244458,-0.0349429,6.99484,0.234353,0.00999395,255,0.0202554,3.55855
2,1,Potentiostatic EIS,6.95002,3.55853,-0.00642799,9999.98,0.0369198,49.1656,0.0241409,-0.0279336,3.22213,0.270478,0.00998602,307,0.0307001,3.55853
2,1,Potentiostatic EIS,7.16222,3.55855,-0.00622605,7943.27,0.0325956,43.4915,0.0236473,-0.0224338,3.89551,0.285273,0.00929864,244,0.0307178,3.55855
2,1,Potentiostatic EIS,7.37718,3.55856,-0.00595816,6309.57,0.0284416,36.657,0.0228166,-0.0169803,4.28232,0.369515,0.0105096,193,0.0305885,3.55856
2,1,Potentiostatic EIS,7.59066,3.55859,-0.00525848,5011.87,0.0266236,28.5782,0.0233799,-0.0127356,4.27714,0.391116,0.0104129,153,0.0305276,3.55859
2,1,Potentiostatic EIS,7.80165,3.5586,-0.00499606,3981.07,0.0256076,22.2693,0.0236976,-0.00970429,4.04854,0.399185,0.0102222,122,0.0306451,3.5586
2,1,Potentiostatic EIS,7.96796,3.55864,-0.00422066,3162.27,0.0250131,16.9021,0.0239326,-0.00727221,3.81546,0.36894,0.00922832,97,0.0306742,3.55864
2,1,Potentiostatic EIS,8.13635,3.55863,-0.00419357,2511.88,0.0246966,12.2634,0.024133,-0.00524571,3.44721,0.424173,0.0104756,77,0.0306543,3.55863
2,1,Potentiostatic EIS,8.30173,3.55867,-0.00366862,1995.26,0.0246276,8.39134,0.0243639,-0.00359399,3.12496,0.416179,0.0102495,61,0.0305725,3.55867
2,1,Potentiostatic EIS,8.42392,3.55868,-0.00343877,1584.89,0.0247366,5.15646,0.0246365,-0.00222322,2.8686,0.345668,0.00855066,48,0.030286,3.55868
2,1,Potentiostatic EIS,8.54692,3.55867,-0.00337818,1258.92,0.0249644,2.43002,0.0249419,-0.00105847,2.55195,0.401583,0.0100253,38,0.0301845,3.55867
2,1,Potentiostatic EIS,8.67044,3.55868,-0.00329749,999.999,0.0253002,0.231218,0.0253,-0.000102099,2.4133,0.405814,0.0102672,30,0.03,3.55868
2,1,Potentiostatic EIS,8.79469,3.55869,-0.00305981,794.328,0.0256898,-1.64002,0.0256792,0.000735235,2.31164,0.394394,0.0101319,24,0.0302142,3.55869
2,1,Potentiostatic EIS,8.91881,3.55869,-0.00311513,630.956,0.0261415,-3.17019,0.0261015,0.00144568,2.25016,0.384626,0.0100547,19,0.030113,3.55869
2,1,Potentiostatic EIS,9.042,3.5587,-0.00273332,501.187,0.0266374,-4.48733,0.0265558,0.00208408,2.15622,0.376474,0.0100283,15,0.029929,3.5587
2,1,Potentiostatic EIS,9.12234,3.5587,-0.00273533,398.107,0.027203,-5.63846,0.0270714,0.00267272,2.08214,0.328847,0.00894564,12,0.0301427,3.5587
2,1,Potentiostatic EIS,9.20187,3.5587,-0.00247259,316.228,0.0278024,-6.60633,0.0276178,0.00319858,1.9197,0.337893,0.00939426,9,0.0284605,3.5587
2,1,Potentiostatic EIS,9.28283,3.55871,-0.00247141,251.189,0.0285047,-7.4648,0.0282631,0.00370324,1.72259,0.339421,0.00967509,8,0.0318486,3.55871
2,1,Potentiostatic EIS,9.37413,3.55871,-0.00236316,199.526,0.0292412,-8.15189,0.0289457,0.00414634,1.51586,0.336283,0.00983331,8,0.0400951,3.55871
2,1,Potentiostatic EIS,9.4744,3.55871,-0.0022924,158.489,0.0300425,-8.74823,0.029693,0.00456925,1.30087,0.330263,0.00992192,8,0.0504766,3.55871
2,1,Potentiostatic EIS,9.58644,3.55872,-0.00222933,125.892,0.0309066,-9.24863,0.0305048,0.00496727,1.10239,0.32241,0.0099646,8,0.0635464,3.55872
2,1,Potentiostatic EIS,9.71531,3.55872,-0.00230109,100,0.0318202,-9.60765,0.0313739,0.00531081,0.906913,0.313523,0.00997637,8,0.08,3.55872
2,1,Potentiostatic EIS,9.86596,3.55871,-0.00248393,79.4327,0.0327876,-9.78348,0.0323108,0.00557145,0.739868,0.304158,0.00997264,8,0.100714,3.55871
2,1,Potentiostatic EIS,10.0457,3.55871,-0.00269095,63.0956,0.0338013,-9.84256,0.0333038,0.00577805,0.591876,0.294955,0.00996987,8,0.126792,3.55871
2,1,Potentiostatic EIS,10.2599,3.55871,-0.00214086,50.1186,0.0348137,-9.81307,0.0343043,0.00593344,0.485281,0.281482,0.00979942,8,0.159621,3.55871
2,1,Potentiostatic EIS,10.5192,3.55871,-0.00287911,39.8107,0.0358503,-9.59399,0.0353489,0.005975,0.378078,0.274006,0.00982318,8,0.200951,3.55871
2,1,Potentiostatic EIS,10.6626,3.55871,-0.00393289,31.6228,0.0368355,-9.3606,0.036345,0.00599121,0.320885,0.26934,0.00992141,2,0.0632456,3.55871
2,1,Potentiostatic EIS,10.8247,3.55872,-0.0030598,25.1188,0.037872,-8.87567,0.0374185,0.00584331,0.25565,0.255314,0.00966941,2,0.0796217,3.55872
2,1,Potentiostatic EIS,11.0244,3.55872,-0.00344295,19.9526,0.0388366,-8.41645,0.0384184,0.0056844,0.231589,0.251515,0.00976799,2,0.100238,3.55872
2,1,Potentiostatic EIS,11.2714,3.55872,-0.00322228,15.8489,0.0397316,-7.83771,0.0393605,0.00541811,0.226594,0.247502,0.00983365,2,0.126192,3.55872
2,1,Potentiostatic EIS,11.5777,3.55871,-0.00328638,12.5892,0.040559,-7.22664,0.0402368,0.00510209,0.214629,0.243605,0.00988038,2,0.158866,3.55871
2,1,Potentiostatic EIS,11.959,3.55872,-0.00329841,9.99998,0.0413147,-6.60617,0.0410404,0.00475301,0.17782,0.239914,0.00991196,2,0.2,3.55872
2,1,Potentiostatic EIS,12.434,3.55872,-0.00317562,7.94328,0.0419646,-5.97143,0.0417369,0.00436569,0.195392,0.236413,0.009921,2,0.251785,3.55872
2,1,Potentiostatic EIS,13.0272,3.55872,-0.00309811,6.30957,0.0425248,-5.37848,0.0423375,0.00398603,0.17602,0.233823,0.00994326,2,0.316979,3.55872
2,1,Potentiostatic EIS,13.7704,3.55872,-0.00309173,5.01186,0.0430134,-4.8041,0.0428623,0.00360233,0.176555,0.231057,0.00993851,2,0.399053,3.55872
2,1,Potentiostatic EIS,14.6971,3.55873,-0.00330433,3.98106,0.0434423,-4.31604,0.0433191,0.00326937,0.176125,0.229133,0.00995408,2,0.502378,3.55873
2,1,Potentiostatic EIS,15.8615,3.55873,-0.00330538,3.16227,0.043797,-3.86321,0.0436975,0.00295081,0.191258,0.22736,0.00995771,2,0.632458,3.55873
2,1,Potentiostatic EIS,17.3237,3.55872,-0.00324524,2.51188,0.0441164,-3.49377,0.0440344,0.00268845,0.187639,0.225673,0.00995586,2,0.796216,3.55872
2,1,Potentiostatic EIS,19.1629,3.55872,-0.00332441,1.99526,0.0443798,-3.18309,0.0443114,0.00246427,0.180693,0.224542,0.00996517,2,1.00238,3.55872
2,1,Potentiostatic EIS,21.4734,3.55872,-0.00346968,1.58489,0.0446369,-2.90577,0.0445795,0.0022628,0.17237,0.22323,0.00996432,2,1.26192,3.55872
2,1,Potentiostatic EIS,24.3783,3.55871,-0.00325018,1.25892,0.0448611,-2.72507,0.0448103,0.00213285,0.180361,0.222104,0.00996383,2,1.58866,3.55871
2,1,Potentiostatic EIS,28.0298,3.55872,-0.00336222,0.999998,0.0450583,-2.56191,0.0450133,0.00201406,0.167116,0.221212,0.00996743,2,2,3.55872
2,1,Potentiostatic EIS,32.6243,3.55872,-0.00324751,0.794327,0.0452573,-2.46834,0.0452153,0.00194911,0.169979,0.220185,0.00996498,2,2.51785,3.55872
2,1,Potentiostatic EIS,38.4037,3.55872,-0.00296771,0.630956,0.0454524,-2.40116,0.0454125,0.00190427,0.188682,0.219237,0.00996484,2,3.16979,3.55872
2,1,Potentiostatic EIS,45.6777,3.55871,-0.00334957,0.501186,0.0456605,-2.40476,0.0456203,0.00191585,0.166634,0.218325,0.00996884,2,3.99054,3.55871
2,1,Potentiostatic EIS,54.833,3.55871,-0.00305759,0.398106,0.0458573,-2.42064,0.0458164,0.00193681,0.162395,0.217455,0.0099719,2,5.02379,3.55871
2,1,Potentiostatic EIS,66.3486,3.55872,-0.00273347,0.316227,0.046051,-2.50722,0.0460069,0.00201451,0.164306,0.216546,0.00997218,2,6.32457,3.55872
2,1,Potentiostatic EIS,80.8435,3.55872,-0.00298968,0.251188,0.0462622,-2.62912,0.0462135,0.00212208,0.164853,0.215331,0.00996167,2,7.96216,3.55872
2,1,Potentiostatic EIS,99.088,3.55871,-0.00261879,0.199526,0.0464764,-2.78415,0.0464215,0.00225752,0.154937,0.214538,0.00997095,2,10.0238,3.55871
2,1,Potentiostatic EIS,122.058,3.55872,-0.00215982,0.158489,0.0467187,-3.00473,0.0466545,0.00244892,0.160002,0.213307,0.00996541,2,12.6192,3.55872
2,1,Potentiostatic EIS,150.971,3.55872,-0.00227658,0.125892,0.0469463,-3.25452,0.0468706,0.00266522,0.167468,0.212149,0.00995962,2,15.8866,3.55872
2,1,Potentiostatic EIS,187.363,3.55871,-0.00144381,0.0999997,0.0472399,-3.59417,0.047147,0.00296142,0.178835,0.211055,0.0099702,2,20.0001,3.55871