File: Data/P190/P190_04/EIS_06_P190_04_3/2_EIS_06_P190_04_3 20231012 105432.csv
Step number,Repeats,Step name,Elapsed Time  (s),DC Working Electrode (V),DC Current (A),Frequency (Hz),|Z| (Ohms),Phase (deg),Z' (Ohms),-Z" (Ohms),THD (%),Amplitude (A),Amplitude (V),No of Cycles,Duration of Each Frequency (s),IR Compensated DC Working Electrode (V)
2,1,Potentiostatic EIS,60.2979,3.50198,-0.0145013,1000000,3.16591,88.0894,0.105551,-3.16415,1.12375,0.00314812,0.00996666,1430,0.00143,3.50198
2,1,Potentiostatic EIS,60.5232,3.50197,-0.015128,891251,2.83685,87.9513,0.101415,-2.83503,1.17725,0.0034653,0.00983083,1310,0.00146984,3.50197
2,1,Potentiostatic EIS,60.751,3.50194,-0.015027,794328,2.5468,87.777,0.0987896,-2.54488,1.24619,0.0038933,0.00991546,1445,0.00181915,3.50194
2,1,Potentiostatic EIS,60.9816,3.50193,-0.0155906,707946,2.27868,87.932,0.0822269,-2.27719,1.24261,0.00433777,0.00988447,1340,0.0018928,3.50193
2,1,Potentiostatic EIS,61.2188,3.5019,-0.0164621,630957.25,2.03087,87.3339,0.0944683,-2.02867,1.05507,0.00482029,0.00978944,1355,0.00214753,3.5019
2,1,Potentiostatic EIS,61.4829,3.50188,-0.0167874,562341.25,1.81163,87.221,0.0878361,-1.8095,1.14748,0.00551314,0.00998781,1360,0.00241846,3.50188
2,1,Potentiostatic EIS,61.75,3.50187,-0.0166841,501187,1.61955,87.3221,0.0756668,-1.61778,1.15509,0.00615972,0.00997595,1385,0.00276344,3.50187
2,1,Potentiostatic EIS,62.0252,3.50186,-0.0171553,446684,1.45017,86.8082,0.0807443,-1.44792,1.22828,0.00687085,0.00996389,1360,0.00304466,3.50186
2,1,Potentiostatic EIS,62.2994,3.50183,-0.0177598,398107,1.30005,86.61,0.0768751,-1.29778,1.18959,0.00766237,0.00996152,1400,0.00351664,3.50183
2,1,Potentiostatic EIS,62.5856,3.50179,-0.0180239,354813,1.15934,86.1698,0.0774434,-1.15675,1.32607,0.00856041,0.00992439,1365,0.00384709,3.50179
2,1,Potentiostatic EIS,62.8865,3.50179,-0.0183706,316228,1.03194,86.1075,0.0700529,-1.02956,1.23203,0.00963154,0.00993913,1370,0.00433232,3.50179
2,1,Potentiostatic EIS,63.2027,3.50176,-0.0191309,281838.25,0.927835,85.5636,0.071771,-0.925055,1.36912,0.0107233,0.00994952,1370,0.00486094,3.50176
2,1,Potentiostatic EIS,63.6851,3.50172,-0.0195083,251189,0.830933,85.2572,0.0687042,-0.828088,1.14998,0.0119946,0.00996673,1340,0.00533464,3.50172
2,1,Potentiostatic EIS,64.037,3.50171,-0.0200533,223872,0.742993,85.2135,0.0619981,-0.740402,1.20094,0.0131406,0.00976266,1360,0.0060749,3.50171
2,1,Potentiostatic EIS,64.4437,3.50166,-0.0209457,199526,0.662954,85.0001,0.0577785,-0.660431,1.30661,0.0149906,0.009938,1355,0.00679109,3.50166
2,1,Potentiostatic EIS,64.8791,3.50164,-0.0210653,177828,0.596436,84.4929,0.0572399,-0.593683,1.47313,0.0166573,0.00993507,1355,0.00761973,3.50164
2,1,Potentiostatic EIS,65.3421,3.50162,-0.0217634,158489,0.533217,83.9712,0.0560028,-0.530268,1.42273,0.0186658,0.00995298,1360,0.00858103,3.50162
2,1,Potentiostatic EIS,65.8375,3.50157,-0.0224738,141254,0.477762,83.918,0.0506195,-0.475073,1.42513,0.0208713,0.00997153,1355,0.00959267,3.50157
2,1,Potentiostatic EIS,66.5989,3.5015,-0.0237076,125892,0.429171,83.2153,0.0507015,-0.426166,1.59076,0.023204,0.00995849,1370,0.0108823,3.5015
2,1,Potentiostatic EIS,67.1755,3.50148,-0.0241211,112202,0.384817,82.8195,0.0481003,-0.381799,1.58248,0.0259542,0.00998765,1360,0.012121,3.50148
2,1,Potentiostatic EIS,67.7385,3.50144,-0.0250392,99999.9,0.343851,82.3538,0.0457514,-0.340794,1.79654,0.029019,0.00997823,1370,0.0137,3.50144
2,1,Potentiostatic EIS,68.3511,3.50143,-0.025878,89125.1,0.308592,81.9543,0.0431916,-0.305554,1.53493,0.0323908,0.00999555,1365,0.0153156,3.50143
2,1,Potentiostatic EIS,69.0215,3.50138,-0.026526,79432.8,0.277345,81.2432,0.0422233,-0.274112,2.1611,0.0360151,0.00998866,1365,0.0171843,3.50138
2,1,Potentiostatic EIS,69.7457,3.50131,-0.0274937,70794.5,0.248681,80.6022,0.0406065,-0.245343,1.70564,0.0401447,0.0099833,1370,0.0193518,3.50131
2,1,Potentiostatic EIS,69.9892,3.50122,-0.0283483,63095.7,0.222725,80.1064,0.0382686,-0.219413,1.90668,0.0448354,0.00998601,1290,0.0204451,3.50122
2,1,Potentiostatic EIS,70.2365,3.50126,-0.0286612,56234.1,0.200623,79.2069,0.0375692,-0.197074,1.8719,0.0496238,0.00995571,1150,0.0204502,3.50126
2,1,Potentiostatic EIS,70.4923,3.50128,-0.0290556,50118.7,0.179626,78.6804,0.0352573,-0.176132,1.85158,0.0547184,0.00982906,1025,0.0204515,3.50128
2,1,Potentiostatic EIS,70.7757,3.50121,-0.0291449,44668.3,0.161438,77.1205,0.0359846,-0.157376,1.92715,0.060619,0.00978614,910,0.0203724,3.50121
2,1,Potentiostatic EIS,71.0731,3.50124,-0.0292416,39810.7,0.145193,76.3582,0.0342441,-0.141097,2.06567,0.0671552,0.0097512,815,0.0204719,3.50124
2,1,Potentiostatic EIS,71.429,3.50161,-0.018148,35481.3,0.130532,75.4523,0.0327878,-0.126347,3.78735,0.0744444,0.00971765,725,0.0204333,3.50161
2,1,Potentiostatic EIS,71.6479,3.50175,-0.015612,31622.8,0.118047,74.0626,0.0324141,-0.11351,4.99154,0.085024,0.0100369,645,0.0203967,3.50175
2,1,Potentiostatic EIS,71.8695,3.50174,-0.015489,28183.8,0.105699,72.9169,0.03105,-0.101036,5.28529,0.0941829,0.00995511,575,0.0204018,3.50174
2,1,Potentiostatic EIS,72.0894,3.5021,-0.00619171,25118.8,0.0963864,71.2874,0.0309228,-0.0912914,5.4636,0.104328,0.0100559,510,0.0203035,3.5021
2,1,Potentiostatic EIS,72.3135,3.5021,-0.00623392,22387.2,0.0865242,69.7054,0.0300106,-0.081153,5.72399,0.115377,0.00998299,455,0.0203241,3.5021
2,1,Potentiostatic EIS,72.5329,3.50208,-0.00568013,19952.6,0.0787437,67.7577,0.0298063,-0.0728845,6.25235,0.127653,0.0100519,405,0.0202981,3.50208
2,1,Potentiostatic EIS,72.7543,3.50208,-0.00530321,17782.8,0.0715825,65.948,0.0291746,-0.0653675,6.6112,0.139945,0.0100176,360,0.0202443,3.50208
2,1,Potentiostatic EIS,72.9606,3.5022,-0.00505642,15848.9,0.0648672,63.8743,0.0285638,-0.0582397,6.32821,0.149534,0.00970034,320,0.0201906,3.5022
2,1,Potentiostatic EIS,73.1623,3.50211,-0.00470866,14125.4,0.0597239,61.2643,0.0287134,-0.0523687,6.66775,0.163604,0.00977138,285,0.0201765,3.50211
2,1,Potentiostatic EIS,73.3672,3.50217,-0.00452202,12589.2,0.0545314,59.0134,0.0280748,-0.0467491,6.73194,0.179748,0.00980187,255,0.0202554,3.50217
2,1,Potentiostatic EIS,73.5709,3.50215,-0.00455188,11220.2,0.0502796,56.125,0.0280249,-0.0417449,6.77255,0.195054,0.00980761,225,0.0200532,3.50215
2,1,Potentiostatic EIS,73.8367,3.50237,-0.00422829,9999.98,0.0465523,53.8849,0.0274384,-0.0376065,3.17774,0.215934,0.0100522,307,0.0307001,3.50237
2,1,Potentiostatic EIS,74.0477,3.50237,-0.00453476,8912.5,0.0432989,51.2422,0.0271064,-0.0337645,3.52474,0.234232,0.010142,273,0.0306311,3.50237
2,1,Potentiostatic EIS,74.2583,3.50236,-0.00480678,7943.27,0.040427,48.7666,0.0266466,-0.0304023,3.85329,0.261849,0.0105858,244,0.0307178,3.50236
2,1,Potentiostatic EIS,74.4704,3.50238,-0.00442073,7079.45,0.0374052,46.2531,0.0258647,-0.0270216,4.16964,0.282662,0.010573,217,0.0306521,3.50238
2,1,Potentiostatic EIS,74.6811,3.50238,-0.00420691,6309.57,0.0346985,42.4526,0.0256018,-0.0234208,4.40535,0.301987,0.0104785,193,0.0305885,3.50238
2,1,Potentiostatic EIS,74.8944,3.50242,-0.00358369,5623.41,0.0329429,38.4965,0.0257826,-0.0205058,4.48606,0.314561,0.0103625,172,0.0305864,3.50242
2,1,Potentiostatic EIS,75.1079,3.50243,-0.00344219,5011.87,0.0316458,34.9171,0.0259489,-0.0181137,4.46871,0.324963,0.0102837,153,0.0305276,3.50243
2,1,Potentiostatic EIS,75.3192,3.50241,-0.00377452,4466.83,0.0306133,31.5811,0.0260795,-0.0160323,4.39083,0.334604,0.0102433,137,0.0306705,3.50241
2,1,Potentiostatic EIS,75.5298,3.50243,-0.00334987,3981.07,0.0297125,28.5457,0.0261005,-0.0141984,4.23951,0.341862,0.0101576,122,0.0306451,3.50243
2,1,Potentiostatic EIS,75.6973,3.50247,-0.00247573,3548.13,0.0289463,25.567,0.0261119,-0.0124923,4.16955,0.305279,0.0088367,108,0.0304386,3.50247
2,1,Potentiostatic EIS,75.8643,3.50245,-0.00259265,3162.27,0.0283648,22.8269,0.0261433,-0.0110041,3.92741,0.343709,0.00974923,97,0.0306742,3.50245
2,1,Potentiostatic EIS,76.0312,3.50245,-0.00250416,2818.38,0.0278753,20.2083,0.0261594,-0.00962907,3.81771,0.37625,0.0104881,86,0.030514,3.50245
2,1,Potentiostatic EIS,76.1983,3.50243,-0.00313272,2511.88,0.0275226,17.7601,0.026211,-0.00839529,3.57029,0.378226,0.0104098,77,0.0306543,3.50243
2,1,Potentiostatic EIS,76.3654,3.50248,-0.00234377,2238.72,0.0272513,15.4714,0.0262639,-0.00726952,3.40934,0.378344,0.0103104,68,0.0303745,3.50248
2,1,Potentiostatic EIS,76.5351,3.50248,-0.00213267,1995.26,0.0270512,13.3762,0.0263173,-0.00625812,3.04827,0.378251,0.0102321,61,0.0305725,3.50248
2,1,Potentiostatic EIS,76.7019,3.50248,-0.00191606,1778.28,0.026908,11.4232,0.026375,-0.00532926,3.03299,0.377088,0.0101467,54,0.0303664,3.50248
2,1,Potentiostatic EIS,76.8256,3.50249,-0.00193382,1584.89,0.0268308,9.63364,0.0264524,-0.00449007,2.88827,0.320119,0.00858905,48,0.030286,3.50249
2,1,Potentiostatic EIS,76.9512,3.50248,-0.00211613,1412.53,0.0268091,8.0325,0.0265461,-0.00374616,2.70248,0.353387,0.00947398,43,0.0304417,3.50248
2,1,Potentiostatic EIS,77.0738,3.50247,-0.00193467,1258.92,0.0268229,6.51692,0.0266496,-0.00304431,2.54927,0.371251,0.00995801,38,0.0301845,3.50247
2,1,Potentiostatic EIS,77.1973,3.50248,-0.00173282,1122.02,0.0268597,5.1794,0.02675,-0.00242474,2.44162,0.384438,0.0103259,34,0.0303026,3.50248
2,1,Potentiostatic EIS,77.3206,3.50249,-0.00180144,999.999,0.0269523,3.92677,0.0268891,-0.00184574,2.33575,0.380193,0.0102471,30,0.03,3.50249
2,1,Potentiostatic EIS,77.4434,3.50249,-0.00171473,891.25,0.0270472,2.79472,0.027015,-0.00131876,2.31325,0.376382,0.0101801,27,0.0302945,3.50249
2,1,Potentiostatic EIS,77.5664,3.50249,-0.00187584,794.328,0.0271956,1.71811,0.0271834,-0.000815386,2.28482,0.372445,0.0101289,24,0.0302142,3.50249
2,1,Potentiostatic EIS,77.6889,3.50251,-0.00104163,707.945,0.0273562,0.806823,0.0273535,-0.00038521,2.12601,0.368766,0.010088,21,0.0296633,3.50251
2,1,Potentiostatic EIS,77.8115,3.5025,-0.001429,630.956,0.0275221,-0.0236273,0.0275221,1.13494e-05,2.03765,0.365758,0.0100664,19,0.030113,3.5025
2,1,Potentiostatic EIS,77.9349,3.5025,-0.00167137,562.34,0.0277252,-0.778665,0.0277227,0.000376781,1.99585,0.362706,0.0100561,17,0.0302308,3.5025
2,1,Potentiostatic EIS,78.0587,3.5025,-0.00142271,501.185,0.0279299,-1.52103,0.02792,0.000741369,1.94999,0.359688,0.0100461,15,0.029929,3.5025
2,1,Potentiostatic EIS,78.1813,3.5025,-0.00150048,446.683,0.0281335,-2.1123,0.0281144,0.00103695,1.89299,0.35636,0.0100257,13,0.0291034,3.5025
2,1,Potentiostatic EIS,78.2599,3.5025,-0.00156722,398.107,0.0283844,-2.67749,0.0283534,0.00132595,1.89638,0.309249,0.00877784,12,0.0301427,3.5025
2,1,Potentiostatic EIS,78.3388,3.50251,-0.00147023,354.813,0.0286077,-3.14387,0.0285647,0.00156895,1.81033,0.315571,0.00902778,10,0.0281839,3.50251
2,1,Potentiostatic EIS,78.4175,3.5025,-0.00147072,316.227,0.0288563,-3.61768,0.0287988,0.00182079,1.73385,0.319959,0.00923282,9,0.0284606,3.5025
2,1,Potentiostatic EIS,78.4962,3.5025,-0.00153752,281.838,0.0291637,-3.98949,0.029093,0.00202902,1.63918,0.322707,0.00941133,8,0.0283851,3.5025
2,1,Potentiostatic EIS,78.5757,3.50251,-0.00144875,251.188,0.0294325,-4.34271,0.029348,0.00222869,1.5493,0.324043,0.0095374,8,0.0318487,3.50251
2,1,Potentiostatic EIS,78.6598,3.50251,-0.00123471,223.872,0.0297243,-4.65021,0.0296264,0.00240981,1.46803,0.324187,0.00963622,8,0.0357347,3.50251
2,1,Potentiostatic EIS,78.7491,3.50251,-0.00111712,199.526,0.0300113,-4.85177,0.0299037,0.0025383,1.38718,0.323757,0.00971636,8,0.0400951,3.50251
2,1,Potentiostatic EIS,78.842,3.50251,-0.00105447,177.828,0.0303101,-5.06564,0.0301917,0.00267629,1.28044,0.322444,0.00977328,8,0.0449874,3.50251
2,1,Potentiostatic EIS,78.9408,3.50251,-0.00116339,158.489,0.0306108,-5.23031,0.0304834,0.00279046,1.18495,0.320735,0.00981796,8,0.0504767,3.50251
2,1,Potentiostatic EIS,79.0462,3.5025,-0.0012336,141.253,0.0308934,-5.34166,0.0307592,0.00287601,1.09867,0.318721,0.00984638,8,0.0566359,3.5025
2,1,Potentiostatic EIS,79.1588,3.50249,-0.00143257,125.892,0.0311961,-5.44509,0.0310553,0.00296025,0.987192,0.316424,0.00987119,8,0.0635464,3.50249
2,1,Potentiostatic EIS,79.2788,3.5025,-0.00146341,112.201,0.0315148,-5.54349,0.0313674,0.00304437,0.928572,0.313811,0.00988971,8,0.0713003,3.5025
2,1,Potentiostatic EIS,79.4077,3.50249,-0.00139869,99.9997,0.0318092,-5.55745,0.0316597,0.00308052,0.835934,0.311228,0.00989992,8,0.0800003,3.50249
2,1,Potentiostatic EIS,79.5478,3.5025,-0.00135693,89.1248,0.0321068,-5.54111,0.0319568,0.00310023,0.739391,0.30856,0.00990689,8,0.0897617,3.5025
2,1,Potentiostatic EIS,79.6988,3.50251,-0.00124626,79.4325,0.0324134,-5.51389,0.0322634,0.0031145,0.671171,0.30587,0.0099143,8,0.100714,3.50251
2,1,Potentiostatic EIS,79.8633,3.50251,-0.00126494,70.7943,0.0326937,-5.45524,0.0325457,0.00310813,0.604,0.303242,0.00991412,8,0.113003,3.50251
2,1,Potentiostatic EIS,80.0421,3.50251,-0.0011379,63.0956,0.0329925,-5.37504,0.0328474,0.00309056,0.54245,0.300676,0.00992005,8,0.126792,3.50251
2,1,Potentiostatic EIS,80.2363,3.50251,-0.00117678,56.2341,0.0332592,-5.30891,0.0331166,0.00307733,0.484,0.290501,0.00966182,8,0.142263,3.50251
2,1,Potentiostatic EIS,80.4497,3.50251,-0.0013711,50.1186,0.0335196,-5.16919,0.0333832,0.00302001,0.436013,0.289005,0.00968731,8,0.159621,3.50251
2,1,Potentiostatic EIS,80.6837,3.5025,-0.00134453,44.6682,0.0337866,-5.02744,0.0336567,0.00296082,0.39183,0.287601,0.00971707,8,0.179098,3.5025
2,1,Potentiostatic EIS,80.9417,3.50249,-0.00153151,39.8106,0.0340353,-4.90629,0.0339105,0.00291091,0.351358,0.286121,0.0097382,8,0.200952,3.50249
2,1,Potentiostatic EIS,81.226,3.50251,-0.00106086,35.4812,0.0342616,-4.73026,0.0341449,0.00282538,0.321726,0.284865,0.0097599,8,0.225471,3.50251
2,1,Potentiostatic EIS,81.3691,3.5025,-0.00196717,31.6227,0.0344852,-4.5751,0.0343754,0.00275074,0.311554,0.286602,0.00988359,2,0.0632458,3.5025
2,1,Potentiostatic EIS,81.5143,3.50249,-0.001854,28.1838,0.034736,-4.38662,0.0346343,0.00265682,0.332507,0.285175,0.00990581,2,0.0709628,3.50249
2,1,Potentiostatic EIS,81.6771,3.5025,-0.00155965,25.1188,0.0349189,-4.18688,0.0348258,0.00254943,0.289087,0.276088,0.00964079,2,0.0796217,3.5025
2,1,Potentiostatic EIS,81.8583,3.50251,-0.00132879,22.3871,0.035116,-4.03106,0.0350291,0.00246856,0.269362,0.275982,0.0096914,2,0.0893371,3.50251
2,1,Potentiostatic EIS,82.0586,3.50251,-0.00137344,19.9525,0.0352891,-3.8325,0.0352102,0.00235872,0.25514,0.276198,0.00974675,2,0.100238,3.50251
2,1,Potentiostatic EIS,82.281,3.5025,-0.00162128,17.7828,0.0354865,-3.66626,0.0354139,0.00226917,0.237357,0.27553,0.00977752,2,0.112468,3.5025
2,1,Potentiostatic EIS,82.5284,3.50251,-0.00155755,15.8489,0.0356316,-3.49914,0.0355652,0.00217473,0.222139,0.275692,0.00982332,2,0.126192,3.50251
2,1,Potentiostatic EIS,82.8036,3.50251,-0.00146254,14.1253,0.0357817,-3.32104,0.0357216,0.00207285,0.239548,0.275037,0.00984123,2,0.14159,3.50251
2,1,Potentiostatic EIS,83.1102,3.50251,-0.00142495,12.5892,0.0359266,-3.14558,0.0358725,0.00197141,0.200879,0.274566,0.00986425,2,0.158866,3.50251
2,1,Potentiostatic EIS,83.4524,3.50251,-0.00177638,11.2201,0.0360355,-2.98608,0.0359866,0.00187721,0.354927,0.27421,0.00988135,2,0.178251,3.50251
2,1,Potentiostatic EIS,83.8338,3.5025,-0.0019541,9.99996,0.0361573,-2.83058,0.0361132,0.00178555,1.07134,0.273843,0.00990138,2,0.200001,3.5025
2,1,Potentiostatic EIS,84.2598,3.50251,-0.00189278,8.91248,0.0362614,-2.70802,0.0362209,0.00171321,0.214456,0.273094,0.0099028,2,0.224404,3.50251
2,1,Potentiostatic EIS,84.7354,3.50251,-0.00180941,7.94325,0.0363843,-2.55237,0.0363482,0.00162029,0.204748,0.27258,0.00991767,2,0.251786,3.50251
2,1,Potentiostatic EIS,85.2673,3.50251,-0.00183089,7.07944,0.0364643,-2.42335,0.0364317,0.00154182,0.225053,0.271993,0.00991799,2,0.282508,3.50251
2,1,Potentiostatic EIS,85.861,3.50251,-0.0019066,6.30955,0.0365472,-2.31024,0.0365175,0.00147323,0.202928,0.271724,0.00993074,2,0.31698,3.50251
2,1,Potentiostatic EIS,86.5251,3.50251,-0.00197777,5.62339,0.0366193,-2.212,0.036592,0.0014134,0.182886,0.271228,0.00993221,2,0.355657,3.50251
2,1,Potentiostatic EIS,87.2684,3.50251,-0.00196383,5.01185,0.0367036,-2.11426,0.0366786,0.00135408,0.222141,0.270804,0.00993946,2,0.399054,3.50251
2,1,Potentiostatic EIS,88.0977,3.50252,-0.00180861,4.46682,0.0367921,-2.02995,0.036769,0.00130325,0.206829,0.270158,0.00993969,2,0.447745,3.50252
2,1,Potentiostatic EIS,89.0255,3.50252,-0.00197848,3.98106,0.0368714,-1.93288,0.0368504,0.00124363,0.233171,0.269703,0.00994432,2,0.502378,3.50252
2,1,Potentiostatic EIS,90.0648,3.50252,-0.00205431,3.54812,0.0369331,-1.88967,0.036913,0.00121787,0.204454,0.269245,0.00994407,2,0.563679,3.50252
2,1,Potentiostatic EIS,91.2293,3.50252,-0.00210159,3.16227,0.036991,-1.82013,0.0369723,0.00117491,0.192172,0.268899,0.00994684,2,0.632458,3.50252
2,1,Potentiostatic EIS,92.5342,3.50251,-0.00213572,2.81837,0.0370432,-1.78319,0.0370253,0.00115269,0.177603,0.268543,0.00994767,2,0.70963,3.50251
2,1,Potentiostatic EIS,93.9964,3.50252,-0.0022014,2.51188,0.0370854,-1.73194,0.0370684,0.00112085,0.188348,0.268026,0.00993985,2,0.796217,3.50252
2,1,Potentiostatic EIS,95.6366,3.50251,-0.00216522,2.23872,0.0371486,-1.71767,0.0371319,0.00111351,0.196872,0.268008,0.00995613,2,0.893369,3.50251
2,1,Potentiostatic EIS,97.4739,3.5025,-0.00239908,1.99526,0.0372431,-1.68819,0.0372269,0.00109719,0.19258,0.267238,0.00995277,2,1.00238,3.5025
2,1,Potentiostatic EIS,99.5342,3.50251,-0.00240076,1.77827,0.0372925,-1.6715,0.0372766,0.00108779,0.176251,0.266663,0.00994454,2,1.12469,3.50251
2,1,Potentiostatic EIS,101.844,3.50251,-0.00226966,1.58489,0.0373439,-1.66477,0.0373282,0.0010849,0.189222,0.266433,0.00994967,2,1.26192,3.50251
2,1,Potentiostatic EIS,104.433,3.50251,-0.00218489,1.41253,0.0373895,-1.66363,0.0373738,0.00108548,0.191683,0.266239,0.00995454,2,1.4159,3.50251
2,1,Potentiostatic EIS,107.336,3.5025,-0.00237509,1.25892,0.0374627,-1.64032,0.0374473,0.00107237,0.175588,0.265491,0.00994599,2,1.58866,3.5025
2,1,Potentiostatic EIS,110.592,3.50249,-0.0023213,1.12202,0.0375275,-1.70114,0.037511,0.00111405,0.195436,0.265214,0.00995283,2,1.78251,3.50249
2,1,Potentiostatic EIS,114.244,3.50249,-0.00239019,0.999995,0.0375963,-1.69504,0.0375799,0.00111209,0.170572,0.264674,0.00995076,2,2.00001,3.50249
2,1,Potentiostatic EIS,118.34,3.50249,-0.00237416,0.891248,0.0376576,-1.74862,0.0376401,0.0011491,0.177226,0.26422,0.00994991,2,2.24404,3.50249
2,1,Potentiostatic EIS,122.935,3.5025,-0.00200364,0.794324,0.0377247,-1.74878,0.0377071,0.00115126,0.192341,0.263844,0.00995344,2,2.51786,3.5025
2,1,Potentiostatic EIS,128.089,3.5025,-0.0019667,0.707944,0.0378205,-1.80052,0.0378018,0.00118832,0.210451,0.263293,0.00995788,2,2.82508,3.5025
2,1,Potentiostatic EIS,133.868,3.5025,-0.00218912,0.630955,0.0379022,-1.85176,0.0378824,0.00122476,0.195579,0.262586,0.00995259,2,3.1698,3.5025
2,1,Potentiostatic EIS,140.354,3.5025,-0.00176679,0.562339,0.0379391,-1.92904,0.0379176,0.0012771,0.188234,0.262355,0.00995349,2,3.55657,3.5025
2,1,Potentiostatic EIS,147.627,3.5025,-0.00194509,0.501186,0.0379969,-1.99056,0.037974,0.00131982,0.204282,0.261957,0.00995355,2,3.99054,3.5025
2,1,Potentiostatic EIS,155.787,3.50249,-0.00189299,0.446681,0.0380399,-2.05969,0.0380154,0.00136718,0.183726,0.261655,0.00995332,2,4.47747,3.50249
2,1,Potentiostatic EIS,164.941,3.5025,-0.00129974,0.398106,0.0380822,-2.15024,0.0380554,0.00142884,0.197804,0.261411,0.00995509,2,5.02379,3.5025
2,1,Potentiostatic EIS,175.211,3.50249,-0.00164412,0.354812,0.0381338,-2.2355,0.0381048,0.00148748,0.168778,0.261001,0.00995295,2,5.63679,3.50249
2,1,Potentiostatic EIS,186.726,3.50251,-0.00121663,0.316226,0.0382257,-2.32656,0.0381942,0.00155177,0.179369,0.260508,0.00995812,2,6.32458,3.50251
2,1,Potentiostatic EIS,199.646,3.5025,-0.00105909,0.281837,0.0382971,-2.45517,0.038262,0.00164056,0.200687,0.26002,0.00995799,2,7.09631,3.5025
2,1,Potentiostatic EIS,214.14,3.5025,-0.00137024,0.251188,0.0383798,-2.55898,0.0383415,0.00171357,0.184547,0.259368,0.00995449,2,7.96218,3.5025
2,1,Potentiostatic EIS,230.404,3.5025,-0.000912327,0.223871,0.0384702,-2.71412,0.038427,0.00182166,0.178885,0.258922,0.00996078,2,8.9337,3.5025
2,1,Potentiostatic EIS,248.649,3.50251,-0.000903052,0.199525,0.0386085,-2.84432,0.038561,0.00191585,0.198191,0.257966,0.00995972,2,10.0238,3.50251
2,1,Potentiostatic EIS,269.115,3.5025,-0.00107997,0.177827,0.0387568,-2.99106,0.038704,0.00202233,0.195191,0.25691,0.00995699,2,11.2469,3.5025
2,1,Potentiostatic EIS,292.086,3.5025,-0.000638969,0.158489,0.0389456,-3.14973,0.0388867,0.00213988,0.171059,0.255655,0.00995664,2,12.6192,3.5025
2,1,Potentiostatic EIS,317.851,3.5025,-0.000833694,0.141253,0.0390888,-3.33436,0.0390227,0.00227351,0.189085,0.254735,0.0099573,2,14.159,3.5025
2,1,Potentiostatic EIS,346.764,3.5025,-0.000978554,0.125892,0.0392471,-3.5197,0.0391731,0.00240945,0.16826,0.253728,0.00995811,2,15.8867,3.5025
2,1,Potentiostatic EIS,379.196,3.5025,-0.000346028,0.112201,0.039431,-3.70302,0.0393487,0.00254664,0.174668,0.252407,0.00995267,2,17.8251,3.5025
2,1,Potentiostatic EIS,415.587,3.5025,-0.000698613,0.0999997,0.0396179,-3.92702,0.0395249,0.00271326,0.175943,0.251511,0.00996435,2,20.0001,3.5025
2,1,Potentiostatic EIS,456.415,3.50249,-0.000717201,0.0891246,0.0398384,-4.17273,0.0397328,0.00289878,0.192984,0.24994,0.00995722,2,22.4405,3.50249
2,1,Potentiostatic EIS,502.216,3.5025,-0.000119526,0.0794325,0.040029,-4.43222,0.0399093,0.00309343,0.153637,0.248816,0.00995986,2,25.1786,3.5025
2,1,Potentiostatic EIS,553.614,3.5025,-0.000768169,0.0707942,0.0402028,-4.70889,0.0400671,0.00330037,0.155235,0.247569,0.00995298,2,28.2509,3.5025
2,1,Potentiostatic EIS,611.271,3.50251,-0.000366403,0.0630955,0.040473,-5.01243,0.0403182,0.0035362,0.163252,0.246155,0.00996266,2,31.698,3.50251
2,1,Potentiostatic EIS,675.961,3.5025,-0.000374372,0.0562339,0.0407895,-5.30219,0.0406149,0.0037693,0.184663,0.244077,0.00995579,2,35.5657,3.5025
2,1,Potentiostatic EIS,748.543,3.50251,-0.00077016,0.0501185,0.0410586,-5.64977,0.0408592,0.00404211,0.18153,0.242494,0.00995646,2,39.9054,3.50251
2,1,Potentiostatic EIS,821.295,3.5025,-0.000388608,0.05,0.0416075,-5.61339,0.0414079,0.00406986,0.238188,0.239347,0.00995863,2,40,3.5025