File: Data/P190/P190_04/EIS_02_P190_04_4/2_EIS_02_P190_04_4 20230921 151758.csv
Step number,Repeats,Step name,Elapsed Time  (s),DC Working Electrode (V),DC Current (A),Frequency (Hz),|Z| (Ohms),Phase (deg),Z' (Ohms),-Z" (Ohms),THD (%),Amplitude (A),Amplitude (V),No of Cycles,Duration of Each Frequency (s),IR Compensated DC Working Electrode (V)
2,1,Potentiostatic EIS,60.2992,3.46417,-0.0115481,1000000,2.73117,87.8111,0.104313,-2.72918,1.1239,0.00366551,0.0100107,1430,0.00143,3.46417
2,1,Potentiostatic EIS,60.5211,3.46415,-0.0123665,891251,2.42983,87.4165,0.109527,-2.42736,1.08798,0.00401575,0.00975752,1310,0.00146984,3.46415
2,1,Potentiostatic EIS,60.7478,3.46412,-0.0125831,794328,2.18402,87.3403,0.101346,-2.18167,1.221,0.00446947,0.00976159,1445,0.00181915,3.46412
2,1,Potentiostatic EIS,61.0004,3.46408,-0.0134162,707946,1.95313,87.3626,0.0898723,-1.95106,1.12705,0.00511257,0.00998554,1340,0.0018928,3.46408
2,1,Potentiostatic EIS,61.2561,3.46406,-0.0137806,630957.25,1.74423,86.8117,0.0970104,-1.74153,1.15289,0.00571121,0.00996169,1355,0.00214753,3.46406
2,1,Potentiostatic EIS,61.5226,3.46403,-0.0142218,562341.25,1.55743,86.6346,0.0914269,-1.55474,1.08739,0.00639956,0.00996686,1360,0.00241846,3.46403
2,1,Potentiostatic EIS,61.7949,3.46402,-0.0142808,501187,1.39583,86.6979,0.0804001,-1.39351,1.08456,0.00713948,0.00996556,1385,0.00276344,3.46402
2,1,Potentiostatic EIS,62.0679,3.46401,-0.0148372,446684,1.24551,86.1636,0.0833351,-1.24272,1.211,0.00796879,0.00992517,1360,0.00304466,3.46401
2,1,Potentiostatic EIS,62.3477,3.46397,-0.0154737,398107,1.11722,85.9551,0.0788068,-1.11444,1.27003,0.00891832,0.00996375,1400,0.00351664,3.46397
2,1,Potentiostatic EIS,62.6363,3.46395,-0.0158027,354813,0.997179,85.7257,0.0743207,-0.994405,1.18417,0.00998823,0.00996009,1365,0.00384709,3.46395
2,1,Potentiostatic EIS,63.075,3.46393,-0.0164605,316228,0.890634,85.4434,0.0707548,-0.887819,1.3357,0.011185,0.00996174,1370,0.00433232,3.46393
2,1,Potentiostatic EIS,63.3913,3.46388,-0.0174821,281838.25,0.799167,85.1647,0.0673625,-0.796323,1.41146,0.0122782,0.009812,1370,0.00486094,3.46388
2,1,Potentiostatic EIS,63.7279,3.46386,-0.0175985,251189,0.715997,84.7448,0.0655795,-0.712988,1.53734,0.0135212,0.00968036,1340,0.00533464,3.46386
2,1,Potentiostatic EIS,64.1138,3.46382,-0.0183259,223872,0.641869,84.6757,0.0595605,-0.639099,1.47889,0.015567,0.00999197,1360,0.0060749,3.46382
2,1,Potentiostatic EIS,64.5258,3.46381,-0.0189419,199526,0.572504,84.5519,0.0543557,-0.569918,1.47696,0.017312,0.00991124,1355,0.00679109,3.46381
2,1,Potentiostatic EIS,64.9631,3.46376,-0.0198141,177828,0.515131,83.9524,0.0542715,-0.512264,1.4831,0.019334,0.00995951,1355,0.00761973,3.46376
2,1,Potentiostatic EIS,65.5797,3.46373,-0.0204688,158489,0.461985,83.4934,0.0523512,-0.45901,1.47778,0.0215528,0.00995704,1360,0.00858103,3.46373
2,1,Potentiostatic EIS,66.1175,3.4637,-0.0207149,141254,0.413778,83.3459,0.0479469,-0.410991,1.45212,0.0240937,0.00996948,1355,0.00959267,3.4637
2,1,Potentiostatic EIS,66.6483,3.46363,-0.0223802,125892,0.372292,82.8297,0.0464689,-0.36938,1.64109,0.0268188,0.00998447,1370,0.0108823,3.46363
2,1,Potentiostatic EIS,67.2212,3.46359,-0.0230174,112202,0.333846,82.1981,0.0453189,-0.330755,1.69384,0.0297784,0.0099413,1360,0.012121,3.46359
2,1,Potentiostatic EIS,67.7837,3.46355,-0.0239028,99999.9,0.299142,81.8141,0.0425933,-0.296094,1.82522,0.0333575,0.00997866,1370,0.0137,3.46355
2,1,Potentiostatic EIS,68.4009,3.46351,-0.024669,89125.1,0.268767,81.4425,0.0399929,-0.265775,1.72218,0.0372393,0.0100087,1365,0.0153156,3.46351
2,1,Potentiostatic EIS,69.0718,3.46346,-0.0257364,79432.8,0.241017,80.5482,0.0395791,-0.237745,2.36305,0.0415047,0.0100034,1365,0.0171843,3.46346
2,1,Potentiostatic EIS,69.8008,3.46342,-0.0261423,70794.5,0.215877,80.0741,0.0372116,-0.212646,1.95623,0.0457062,0.0098668,1370,0.0193518,3.46342
2,1,Potentiostatic EIS,70.0491,3.4634,-0.0272006,63095.7,0.193851,79.5099,0.0352936,-0.190611,1.85393,0.0504535,0.0097802,1290,0.0204451,3.4634
2,1,Potentiostatic EIS,70.3024,3.46336,-0.0285078,56234.1,0.174871,78.6862,0.0343066,-0.171473,1.98198,0.0555946,0.00972075,1150,0.0204502,3.46336
2,1,Potentiostatic EIS,70.6385,3.46332,-0.027544,50118.7,0.158541,77.5467,0.0341884,-0.15481,1.90687,0.0607371,0.00962635,1025,0.0204515,3.46332
2,1,Potentiostatic EIS,71.0135,3.4639,-0.0120318,44668.3,0.140835,76.6311,0.0325638,-0.137018,3.93185,0.070686,0.00995505,910,0.0203724,3.4639
2,1,Potentiostatic EIS,71.2349,3.46391,-0.0125648,39810.7,0.12697,75.8919,0.0309493,-0.123141,4.41319,0.0787472,0.00999845,815,0.0204719,3.46391
2,1,Potentiostatic EIS,71.4551,3.46392,-0.0122696,35481.3,0.114326,74.8888,0.0298039,-0.110372,4.81241,0.0874584,0.0099986,725,0.0204333,3.46392
2,1,Potentiostatic EIS,71.6716,3.46389,-0.0124944,31622.8,0.103491,73.454,0.0294728,-0.099206,5.23381,0.0973043,0.0100699,645,0.0203967,3.46389
2,1,Potentiostatic EIS,71.8898,3.46393,-0.0122542,28183.8,0.0926541,72.3009,0.0281685,-0.0882684,5.57412,0.107736,0.00998228,575,0.0204018,3.46393
2,1,Potentiostatic EIS,72.1072,3.46427,-0.0033018,25118.8,0.084587,70.618,0.0280714,-0.0797932,5.93713,0.11919,0.0100819,510,0.0203035,3.46427
2,1,Potentiostatic EIS,72.3248,3.46425,-0.00277962,22387.2,0.0759254,69.0604,0.0271345,-0.0709111,6.06608,0.131479,0.00998247,455,0.0203241,3.46425
2,1,Potentiostatic EIS,72.5473,3.46426,-0.00248736,19952.6,0.0693856,67.2337,0.0268504,-0.0639799,6.30086,0.145374,0.0100868,405,0.0202981,3.46426
2,1,Potentiostatic EIS,72.7685,3.46426,-0.00215309,17782.8,0.0628989,65.3964,0.0261872,-0.0571883,6.63982,0.159622,0.0100402,360,0.0202443,3.46426
2,1,Potentiostatic EIS,72.987,3.4643,-0.00161068,15848.9,0.0570188,63.293,0.0256258,-0.0509358,6.77774,0.175169,0.00998785,320,0.0201906,3.4643
2,1,Potentiostatic EIS,73.2046,3.46431,-0.00256438,14125.4,0.0524287,60.8057,0.0255733,-0.0457687,6.81325,0.190728,0.00999955,285,0.0201765,3.46431
2,1,Potentiostatic EIS,73.4054,3.46431,-0.00141162,12589.2,0.0479573,58.6122,0.0249775,-0.0409393,7.09749,0.20226,0.00969934,255,0.0202554,3.46431
2,1,Potentiostatic EIS,73.6217,3.46435,-0.00127309,11220.2,0.0443359,55.6448,0.0250197,-0.0366017,7.03786,0.225743,0.0100086,225,0.0200532,3.46435
2,1,Potentiostatic EIS,73.8808,3.46455,-0.00101388,9999.98,0.0409956,53.4473,0.0244154,-0.0329322,3.27758,0.246661,0.010112,307,0.0307001,3.46455
2,1,Potentiostatic EIS,74.0922,3.46456,-0.000730138,8912.5,0.0381664,50.8157,0.0241142,-0.0295835,3.63453,0.245839,0.00938278,273,0.0306311,3.46456
2,1,Potentiostatic EIS,74.3037,3.46455,-0.0011966,7943.27,0.0356199,48.3835,0.0236567,-0.0266297,3.95586,0.281106,0.010013,244,0.0307178,3.46455
2,1,Potentiostatic EIS,74.5137,3.46453,-0.00151687,7079.45,0.0330136,45.9603,0.0229496,-0.0237321,4.22649,0.320194,0.0105708,217,0.0306521,3.46453
2,1,Potentiostatic EIS,74.7232,3.46457,-0.00115572,6309.57,0.0305425,42.0883,0.022666,-0.0204719,4.46291,0.345771,0.0105607,193,0.0305885,3.46457
2,1,Potentiostatic EIS,74.9356,3.46458,-0.000801895,5623.41,0.0289615,38.0336,0.0228115,-0.0178438,4.55225,0.360449,0.0104391,172,0.0305864,3.46458
2,1,Potentiostatic EIS,75.146,3.46457,-0.000968279,5011.87,0.0278727,34.3235,0.0230191,-0.0157164,4.52147,0.371622,0.0103581,153,0.0305276,3.46457
2,1,Potentiostatic EIS,75.3559,3.46458,-0.000948169,4466.83,0.0269598,31.0168,0.023105,-0.0138921,4.4475,0.381225,0.0102778,137,0.0306705,3.46458
2,1,Potentiostatic EIS,75.5662,3.4646,-0.000395106,3981.07,0.0262111,27.8952,0.0231655,-0.012263,4.29446,0.389783,0.0102167,122,0.0306451,3.4646
2,1,Potentiostatic EIS,75.7784,3.46461,0.00024952,3548.13,0.0255536,24.9169,0.0231751,-0.0107658,4.16719,0.396472,0.0101313,108,0.0304386,3.46461
2,1,Potentiostatic EIS,75.946,3.46463,0.000653599,3162.27,0.0250661,22.1011,0.0232242,-0.00943089,4.1245,0.362596,0.00908885,97,0.0306742,3.46463
2,1,Potentiostatic EIS,76.1121,3.46464,0.000672541,2818.38,0.0246774,19.4738,0.0232657,-0.00822684,3.87612,0.407941,0.0100669,86,0.030514,3.46464
2,1,Potentiostatic EIS,76.2783,3.46464,0.000758859,2511.88,0.0243692,17.0206,0.0233018,-0.00713324,3.64291,0.429479,0.010466,77,0.0306543,3.46464
2,1,Potentiostatic EIS,76.4448,3.46464,0.000612511,2238.72,0.02414,14.6884,0.0233511,-0.00612101,3.28562,0.429186,0.0103605,68,0.0303745,3.46464
2,1,Potentiostatic EIS,76.6107,3.46465,0.00081039,1995.26,0.0239887,12.5438,0.0234161,-0.00521003,3.15049,0.427712,0.0102603,61,0.0305725,3.46465
2,1,Potentiostatic EIS,76.7768,3.46466,0.00146356,1778.28,0.0239007,10.6016,0.0234927,-0.00439721,3.00089,0.426137,0.010185,54,0.0303664,3.46466
2,1,Potentiostatic EIS,76.9429,3.46468,0.0016048,1584.89,0.0238608,8.75628,0.0235827,-0.00363236,2.86671,0.424126,0.01012,48,0.030286,3.46468
2,1,Potentiostatic EIS,77.065,3.46467,0.000908047,1412.53,0.0238681,7.08272,0.0236859,-0.00294298,2.86352,0.377804,0.00901747,43,0.0304417,3.46467
2,1,Potentiostatic EIS,77.1871,3.46466,0.000987754,1258.92,0.023909,5.59162,0.0237953,-0.00232963,2.66453,0.398203,0.00952064,38,0.0301845,3.46466
2,1,Potentiostatic EIS,77.3092,3.46467,0.0013589,1122.02,0.0239776,4.20921,0.0239129,-0.00175992,2.44596,0.432405,0.010368,34,0.0303026,3.46467
2,1,Potentiostatic EIS,77.4338,3.46466,0.00102717,999.999,0.0240935,2.94676,0.0240616,-0.0012386,2.36814,0.427084,0.0102899,30,0.03,3.46466
2,1,Potentiostatic EIS,77.5568,3.46466,0.00128347,891.25,0.0242213,1.79049,0.0242095,-0.000756793,2.31472,0.421736,0.010215,27,0.0302945,3.46466
2,1,Potentiostatic EIS,77.6797,3.46469,0.00169655,794.328,0.0243753,0.775512,0.0243731,-0.000329916,2.23964,0.416444,0.010151,24,0.0302142,3.46469
2,1,Potentiostatic EIS,77.8032,3.46469,0.00207424,707.945,0.0245559,-0.205118,0.0245557,8.79098e-05,2.12514,0.411794,0.010112,21,0.0296633,3.46469
2,1,Potentiostatic EIS,77.9266,3.46469,0.0017095,630.956,0.0247521,-1.05851,0.0247479,0.000457259,2.07554,0.407415,0.0100844,19,0.030113,3.46469
2,1,Potentiostatic EIS,78.0508,3.46468,0.00150306,562.34,0.02494,-1.85188,0.024927,0.000805953,2.0327,0.403247,0.010057,17,0.0302308,3.46468
2,1,Potentiostatic EIS,78.1735,3.4647,0.00211964,501.185,0.0251817,-2.52266,0.0251573,0.00110836,2.00093,0.39942,0.0100581,15,0.029929,3.4647
2,1,Potentiostatic EIS,78.2972,3.46469,0.00184676,446.683,0.0254077,-3.16832,0.0253688,0.00140427,1.92485,0.394315,0.0100186,13,0.0291034,3.46469
2,1,Potentiostatic EIS,78.3752,3.4647,0.00184986,398.107,0.0256518,-3.70159,0.0255983,0.00165608,1.92587,0.340854,0.00874351,12,0.0301427,3.4647
2,1,Potentiostatic EIS,78.453,3.46469,0.00182636,354.813,0.0259043,-4.22323,0.025834,0.00190766,1.89396,0.348051,0.00901602,10,0.0281839,3.46469
2,1,Potentiostatic EIS,78.531,3.46469,0.00168631,316.227,0.0261847,-4.68292,0.0260973,0.00213776,1.78273,0.352651,0.00923408,9,0.0284606,3.46469
2,1,Potentiostatic EIS,78.6088,3.46469,0.00193546,281.838,0.0264699,-5.09395,0.0263653,0.00235024,1.72845,0.355526,0.00941072,8,0.0283851,3.46469
2,1,Potentiostatic EIS,78.688,3.46469,0.00227516,251.188,0.0267616,-5.42493,0.0266418,0.00253008,1.61789,0.356685,0.00954549,8,0.0318487,3.46469
2,1,Potentiostatic EIS,78.7714,3.4647,0.00198836,223.872,0.0270606,-5.73671,0.0269251,0.00270491,1.53255,0.356573,0.00964909,8,0.0357347,3.4647
2,1,Potentiostatic EIS,78.8592,3.4647,0.00209742,199.526,0.0273694,-5.9754,0.0272207,0.00284919,1.42237,0.355592,0.00973235,8,0.0400951,3.4647
2,1,Potentiostatic EIS,78.953,3.4647,0.00221234,177.828,0.027675,-6.1437,0.027516,0.00296184,1.32048,0.353718,0.00978915,8,0.0449874,3.4647
2,1,Potentiostatic EIS,79.0519,3.4647,0.00212092,158.489,0.0279761,-6.31324,0.0278064,0.00307636,1.24475,0.351366,0.00982986,8,0.0504767,3.4647
2,1,Potentiostatic EIS,79.1579,3.46469,0.00191096,141.253,0.0282867,-6.44255,0.0281081,0.00317396,1.13514,0.348678,0.00986294,8,0.0566359,3.46469
2,1,Potentiostatic EIS,79.2693,3.46468,0.00200358,125.892,0.0286116,-6.54331,0.0284252,0.00326041,1.0707,0.345493,0.00988511,8,0.0635464,3.46468
2,1,Potentiostatic EIS,79.3897,3.46468,0.00185621,112.201,0.0289265,-6.58919,0.0287354,0.00331931,0.983112,0.342136,0.00989678,8,0.0713003,3.46468
2,1,Potentiostatic EIS,79.5185,3.46468,0.00195535,99.9997,0.0292457,-6.61321,0.0290511,0.00336811,0.863673,0.338788,0.00990808,8,0.0800003,3.46468
2,1,Potentiostatic EIS,79.6566,3.46469,0.0020901,89.1248,0.0295527,-6.58857,0.0293575,0.00339084,0.798763,0.335363,0.00991086,8,0.0897617,3.46469
2,1,Potentiostatic EIS,79.8064,3.46469,0.00205153,79.4325,0.0298709,-6.54843,0.029676,0.00340657,0.730108,0.331969,0.00991623,8,0.100714,3.46469
2,1,Potentiostatic EIS,79.9692,3.46469,0.00219942,70.7943,0.0301769,-6.47499,0.0299844,0.00340303,0.644132,0.328663,0.00991802,8,0.113003,3.46469
2,1,Potentiostatic EIS,80.1467,3.46468,0.00217556,63.0956,0.0304762,-6.36476,0.0302883,0.00337852,0.59273,0.325443,0.00991824,8,0.126792,3.46468
2,1,Potentiostatic EIS,80.3409,3.46469,0.00226392,56.2341,0.0307764,-6.31181,0.0305899,0.00338354,0.516085,0.312944,0.00963131,8,0.142263,3.46469
2,1,Potentiostatic EIS,80.5538,3.46469,0.0019387,50.1186,0.0310526,-6.17729,0.0308723,0.00334143,0.467504,0.311175,0.00966281,8,0.159621,3.46469
2,1,Potentiostatic EIS,80.7876,3.4647,0.00209433,44.6682,0.0313305,-6.03894,0.0311567,0.00329611,0.421391,0.309408,0.00969391,8,0.179098,3.4647
2,1,Potentiostatic EIS,81.0443,3.46469,0.00175348,39.8106,0.0316021,-5.88812,0.0314354,0.00324194,0.382509,0.307492,0.00971739,8,0.200952,3.46469
2,1,Potentiostatic EIS,81.3282,3.46469,0.002234,35.4812,0.0318467,-5.72695,0.0316878,0.00317791,0.349389,0.305867,0.00974087,8,0.225471,3.46469
2,1,Potentiostatic EIS,81.4723,3.46469,0.000930523,31.6227,0.03209,-5.5747,0.0319382,0.00311733,0.305977,0.307854,0.00987907,2,0.0632458,3.46469
2,1,Potentiostatic EIS,81.6175,3.46468,0.00130472,28.1838,0.0323444,-5.36415,0.0322027,0.00302372,0.291214,0.305919,0.00989474,2,0.0709628,3.46468
2,1,Potentiostatic EIS,81.7798,3.46469,0.00152612,25.1188,0.0325969,-5.19748,0.0324629,0.00295291,0.267644,0.295757,0.00964074,2,0.0796217,3.46469
2,1,Potentiostatic EIS,81.9602,3.4647,0.00187745,22.3871,0.0328138,-5.04349,0.0326867,0.00288472,0.2638,0.29542,0.00969381,2,0.0893371,3.4647
2,1,Potentiostatic EIS,82.1602,3.46469,0.00164268,19.9525,0.0330083,-4.87087,0.0328891,0.00280275,0.237016,0.295242,0.0097455,2,0.100238,3.46469
2,1,Potentiostatic EIS,82.3828,3.46468,0.00137875,17.7828,0.0332151,-4.68691,0.033104,0.00271403,0.223589,0.294474,0.00978098,2,0.112468,3.46468
2,1,Potentiostatic EIS,82.63,3.46469,0.00135928,15.8489,0.033413,-4.49632,0.0333101,0.00261941,0.22056,0.29376,0.00981542,2,0.126192,3.46469
2,1,Potentiostatic EIS,82.9052,3.46471,0.0017586,14.1253,0.0335989,-4.33237,0.0335029,0.00253813,0.223738,0.292873,0.00984023,2,0.14159,3.46471
2,1,Potentiostatic EIS,83.212,3.46469,0.00144201,12.5892,0.0337569,-4.15482,0.0336682,0.00244575,0.221731,0.292169,0.00986275,2,0.158866,3.46469
2,1,Potentiostatic EIS,83.5542,3.46468,0.00099556,11.2201,0.0339305,-3.98625,0.0338484,0.00235875,0.216571,0.290981,0.00987311,2,0.178251,3.46468
2,1,Potentiostatic EIS,83.9358,3.4647,0.00142357,9.99996,0.0340845,-3.80251,0.0340094,0.0022604,0.214956,0.290401,0.00989818,2,0.200001,3.4647
2,1,Potentiostatic EIS,84.3618,3.46469,0.00108408,8.91248,0.0342377,-3.70441,0.0341662,0.00221207,0.208955,0.289098,0.00989805,2,0.224404,3.46469
2,1,Potentiostatic EIS,84.8371,3.4647,0.00107682,7.94325,0.0343728,-3.53581,0.0343074,0.00211985,0.214696,0.288453,0.00991498,2,0.251786,3.4647
2,1,Potentiostatic EIS,85.3687,3.46469,0.00110558,7.07944,0.0345076,-3.39652,0.034447,0.00204443,0.197753,0.287457,0.00991942,2,0.282508,3.46469
2,1,Potentiostatic EIS,85.9623,3.46469,0.00068306,6.30955,0.0346377,-3.2877,0.0345807,0.00198646,0.199907,0.286725,0.00993147,2,0.31698,3.46469
2,1,Potentiostatic EIS,86.6262,3.46469,0.000459911,5.62339,0.034736,-3.16807,0.0346829,0.00191969,0.212068,0.285859,0.0099296,2,0.355657,3.46469
2,1,Potentiostatic EIS,87.3696,3.46469,0.000669209,5.01185,0.0348454,-3.04458,0.0347962,0.00185074,0.194894,0.285238,0.00993923,2,0.399054,3.46469
2,1,Potentiostatic EIS,88.2016,3.4647,0.000631997,4.46682,0.0349794,-2.93722,0.0349334,0.0017924,0.19506,0.284247,0.00994279,2,0.447745,3.4647
2,1,Potentiostatic EIS,89.1293,3.4647,0.000338178,3.98106,0.0350598,-2.85987,0.0350161,0.00174925,0.22703,0.283572,0.00994196,2,0.502378,3.4647
2,1,Potentiostatic EIS,90.1719,3.4647,0.000323573,3.54812,0.0351632,-2.79355,0.0351214,0.00171376,0.238043,0.282607,0.00993735,2,0.563679,3.4647
2,1,Potentiostatic EIS,91.3362,3.4647,0.000357745,3.16227,0.0352527,-2.72279,0.0352129,0.00167464,0.188999,0.282157,0.00994679,2,0.632458,3.4647
2,1,Potentiostatic EIS,92.6409,3.46469,0.000242556,2.81837,0.0353423,-2.65228,0.0353044,0.00163545,0.180613,0.281344,0.00994334,2,0.70963,3.46469
2,1,Potentiostatic EIS,94.1034,3.4647,0.000159322,2.51188,0.0354299,-2.60312,0.0353934,0.00160914,0.219148,0.280673,0.00994419,2,0.796217,3.4647
2,1,Potentiostatic EIS,95.7431,3.4647,0.000303437,2.23872,0.0355301,-2.57725,0.0354941,0.00159765,0.202508,0.280114,0.00995246,2,0.893369,3.4647
2,1,Potentiostatic EIS,97.5813,3.46469,2.2146e-06,1.99526,0.0356052,-2.54975,0.03557,0.00158396,0.231788,0.279488,0.00995125,2,1.00238,3.46469
2,1,Potentiostatic EIS,99.6417,3.46469,-0.000509303,1.77827,0.0356946,-2.5085,0.0356604,0.00156227,0.206799,0.278607,0.00994477,2,1.12469,3.46469
2,1,Potentiostatic EIS,101.952,3.46469,-0.000210951,1.58489,0.0357744,-2.50668,0.0357402,0.00156463,0.174412,0.278106,0.00994908,2,1.26192,3.46469
2,1,Potentiostatic EIS,104.541,3.4647,-0.000153585,1.41253,0.0358672,-2.50752,0.0358328,0.00156921,0.2006,0.277432,0.00995069,2,1.4159,3.4647
2,1,Potentiostatic EIS,107.445,3.4647,-0.000277443,1.25892,0.0359593,-2.51814,0.0359246,0.0015799,0.177605,0.276632,0.0099475,2,1.58866,3.4647
2,1,Potentiostatic EIS,110.701,3.4647,8.68298e-06,1.12202,0.0360428,-2.55737,0.0360069,0.00160822,0.193503,0.276013,0.0099483,2,1.78251,3.4647
2,1,Potentiostatic EIS,114.352,3.4647,6.90416e-05,0.999995,0.0361369,-2.55457,0.036101,0.00161065,0.201202,0.27557,0.00995826,2,2.00001,3.4647
2,1,Potentiostatic EIS,118.448,3.4647,-0.000171857,0.891248,0.0362042,-2.62685,0.0361662,0.00165928,0.18733,0.274852,0.00995081,2,2.24404,3.4647
2,1,Potentiostatic EIS,123.042,3.4647,0.000131374,0.794324,0.0362812,-2.65427,0.0362423,0.00168015,0.198275,0.274529,0.00996023,2,2.51786,3.4647
2,1,Potentiostatic EIS,128.197,3.4647,-0.00015171,0.707944,0.0363529,-2.73503,0.0363115,0.00173465,0.209999,0.273974,0.00995976,2,2.82508,3.4647
2,1,Potentiostatic EIS,133.975,3.46469,-0.000471709,0.630955,0.0364273,-2.79634,0.0363839,0.00177714,0.203226,0.273107,0.00994855,2,3.1698,3.46469
2,1,Potentiostatic EIS,140.46,3.46469,5.52172e-05,0.562339,0.0365211,-2.88845,0.0364747,0.00184035,0.204806,0.272536,0.00995331,2,3.55657,3.46469
2,1,Potentiostatic EIS,147.735,3.4647,-0.000136252,0.501186,0.0366076,-2.99583,0.0365575,0.00191323,0.18742,0.272094,0.0099607,2,3.99054,3.4647
2,1,Potentiostatic EIS,155.894,3.4647,-0.000217635,0.446681,0.0366985,-3.08861,0.0366452,0.00197732,0.214331,0.271196,0.00995246,2,4.47747,3.4647
2,1,Potentiostatic EIS,165.049,3.4647,0.000209319,0.398106,0.0367896,-3.20341,0.0367321,0.00205583,0.206792,0.2703,0.0099442,2,5.02379,3.4647
2,1,Potentiostatic EIS,175.319,3.4647,-0.00011368,0.354812,0.0369258,-3.31673,0.0368639,0.00213636,0.205982,0.26961,0.00995559,2,5.63679,3.4647
2,1,Potentiostatic EIS,186.834,3.46469,6.05473e-05,0.316226,0.0370147,-3.48193,0.0369464,0.00224805,0.191912,0.268916,0.00995383,2,6.32458,3.46469
2,1,Potentiostatic EIS,199.753,3.4647,0.000436644,0.281837,0.0371051,-3.66041,0.0370294,0.00236889,0.187561,0.268315,0.00995587,2,7.09631,3.4647
2,1,Potentiostatic EIS,214.248,3.4647,-0.000140327,0.251188,0.0372041,-3.81287,0.0371218,0.002474,0.19473,0.267586,0.00995527,2,7.96218,3.4647
2,1,Potentiostatic EIS,230.511,3.46469,0.000105057,0.223871,0.0373192,-3.99201,0.0372286,0.00259806,0.192423,0.26672,0.00995376,2,8.9337,3.46469
2,1,Potentiostatic EIS,248.754,3.46468,0.000172293,0.199525,0.0374285,-4.18856,0.0373285,0.00273374,0.212627,0.265957,0.00995436,2,10.0238,3.46468
2,1,Potentiostatic EIS,269.22,3.46469,1.04403e-05,0.177827,0.0375485,-4.39081,0.0374383,0.00287468,0.190213,0.265055,0.00995241,2,11.2469,3.46469
2,1,Potentiostatic EIS,292.191,3.46469,0.000411676,0.158489,0.0377153,-4.61811,0.0375928,0.00303661,0.180396,0.263949,0.00995491,2,12.6192,3.46469
2,1,Potentiostatic EIS,317.956,3.46469,6.73716e-05,0.141253,0.0378722,-4.90296,0.0377336,0.00323687,0.181566,0.262832,0.009954,2,14.159,3.46469
2,1,Potentiostatic EIS,346.868,3.4647,-2.07896e-05,0.125892,0.0380038,-5.17692,0.0378488,0.00342914,0.150066,0.262023,0.00995786,2,15.8867,3.4647
2,1,Potentiostatic EIS,379.3,3.4647,0.00032465,0.112201,0.0381669,-5.47045,0.0379931,0.00363854,0.164107,0.260906,0.00995794,2,17.8251,3.4647
2,1,Potentiostatic EIS,415.692,3.46469,-0.000307892,0.0999997,0.0383311,-5.8177,0.0381337,0.00388539,0.194853,0.259846,0.0099602,2,20.0001,3.46469
2,1,Potentiostatic EIS,456.52,3.46469,0.00015363,0.0891246,0.0384832,-6.17189,0.0382602,0.00413739,0.205126,0.258708,0.0099559,2,22.4405,3.46469
2,1,Potentiostatic EIS,502.32,3.46469,0.000717109,0.0794325,0.0387578,-6.5177,0.0385073,0.0043994,0.188966,0.256951,0.00995891,2,25.1786,3.46469
2,1,Potentiostatic EIS,553.719,3.46469,-0.000227799,0.0707942,0.0390472,-6.88212,0.0387659,0.00467891,0.163129,0.254805,0.00994934,2,28.2509,3.46469
2,1,Potentiostatic EIS,611.375,3.4647,0.000212261,0.0630955,0.0392359,-7.35442,0.0389131,0.00502246,0.205067,0.253827,0.00995916,2,31.698,3.4647
2,1,Potentiostatic EIS,676.064,3.46469,0.000313685,0.0562339,0.0394458,-7.85921,0.0390753,0.0053938,0.175171,0.252619,0.00996473,2,35.5657,3.46469
2,1,Potentiostatic EIS,748.647,3.46468,-0.000518526,0.0501185,0.0396591,-8.34855,0.0392388,0.00575829,0.163106,0.25101,0.00995482,2,39.9054,3.46468
2,1,Potentiostatic EIS,821.398,3.46467,-0.000352037,0.05,0.0396092,-8.39727,0.0391846,0.00578437,0.190939,0.251324,0.00995474,2,40,3.46467