File: Data/P190_04/EIS_08_P190_04_4/3_EIS_08_P190_04_4 20231019 142525.csv
Step number,Repeats,Step name,Elapsed Time  (s),DC Working Electrode (V),DC Current (A),Frequency (Hz),|Z| (Ohms),Phase (deg),Z' (Ohms),-Z" (Ohms),THD (%),Amplitude (A),Amplitude (V),No of Cycles,Duration of Each Frequency (s),IR Compensated DC Working Electrode (V)
3,1,Potentiostatic EIS,821.804,3.48743,0.0248475,1000000,3.08783,87.9881,0.108404,-3.08592,0.978214,0.0032024,0.00988861,1430,0.00143,3.48743
3,1,Potentiostatic EIS,822.266,3.48741,0.0191716,990832,3.05521,88.0731,0.102732,-3.05348,0.983138,0.00322013,0.00983822,1435,0.00144828,3.48741
3,1,Potentiostatic EIS,822.726,3.48742,0.0163411,981748.125,3.03355,88.0874,0.101244,-3.03186,0.928155,0.00324157,0.00983372,1435,0.00146168,3.48742
3,1,Potentiostatic EIS,823.187,3.48743,0.0140091,972747,2.99967,88.0819,0.100404,-2.99799,0.936237,0.003293,0.00987776,1430,0.00147006,3.48743
3,1,Potentiostatic EIS,823.651,3.48742,0.0122963,963829,2.97366,87.9971,0.103929,-2.97184,0.933818,0.0033086,0.00983862,1430,0.00148367,3.48742
3,1,Potentiostatic EIS,824.105,3.48742,0.0109275,954993,2.94548,88.042,0.100639,-2.94376,0.925769,0.00333238,0.00981544,1425,0.00149216,3.48742
3,1,Potentiostatic EIS,824.569,3.48742,0.00974572,946237,2.91716,88.012,0.101199,-2.9154,0.922058,0.0033762,0.0098491,1415,0.0014954,3.48742
3,1,Potentiostatic EIS,825.028,3.48744,0.00885921,937562,2.89347,87.9762,0.102182,-2.89167,0.825784,0.00339236,0.00981543,1405,0.00149857,3.48744
3,1,Potentiostatic EIS,825.479,3.48737,0.00779308,928967,2.8681,87.9175,0.104221,-2.86621,1.71519,0.00343199,0.00984339,1450,0.00156087,3.48737
3,1,Potentiostatic EIS,825.93,3.48744,0.00741101,920450,2.84393,87.9415,0.102154,-2.84209,0.992892,0.00345931,0.00983813,1440,0.00156445,3.48744
3,1,Potentiostatic EIS,826.386,3.48744,0.00667574,912011,2.81919,87.9067,0.102978,-2.81731,0.989277,0.00350247,0.00987408,1425,0.00156248,3.48744
3,1,Potentiostatic EIS,826.844,3.48744,0.00611164,903650,2.79309,87.812,0.106637,-2.79106,0.954762,0.00352557,0.00984721,1415,0.00156587,3.48744
3,1,Potentiostatic EIS,827.297,3.48742,0.00532166,895365.25,2.76413,87.8548,0.103467,-2.76219,0.906807,0.00357157,0.00987224,1405,0.00156919,3.48742
3,1,Potentiostatic EIS,827.751,3.48746,0.00512684,887156,2.7472,87.8558,0.102783,-2.74528,0.948892,0.00359309,0.00987104,1400,0.00157808,3.48746
3,1,Potentiostatic EIS,828.205,3.48742,0.00410259,879023,2.71521,87.8255,0.103022,-2.71326,2.8144,0.00362754,0.00984975,1395,0.00158699,3.48742
3,1,Potentiostatic EIS,828.666,3.48742,0.00391353,870964,2.69706,87.8099,0.103067,-2.69509,0.849647,0.0036559,0.00986014,1390,0.00159593,3.48742
3,1,Potentiostatic EIS,829.124,3.48743,0.00387647,862979,2.66857,87.7872,0.103035,-2.66658,0.822196,0.00368715,0.00983943,1390,0.0016107,3.48743
3,1,Potentiostatic EIS,829.581,3.48743,0.00320383,855067.25,2.64876,87.6961,0.106479,-2.64662,0.862739,0.00372287,0.00986104,1390,0.0016256,3.48743
3,1,Potentiostatic EIS,830.047,3.48745,0.00295814,847228,2.62279,87.7902,0.101131,-2.62084,1.02963,0.00375765,0.00985544,1390,0.00164064,3.48745
3,1,Potentiostatic EIS,830.506,3.48744,0.00250123,839461,2.59967,87.8377,0.0980868,-2.59781,0.858013,0.00380034,0.00987955,1395,0.00166178,3.48744
3,1,Potentiostatic EIS,830.969,3.48744,0.0023399,831764.375,2.58024,87.7141,0.102915,-2.57818,0.908979,0.00383419,0.00989305,1400,0.00168317,3.48744
3,1,Potentiostatic EIS,831.432,3.48743,0.0015293,824139,2.55894,87.7961,0.0984055,-2.55704,0.814276,0.0038635,0.00988652,1405,0.00170481,3.48743
3,1,Potentiostatic EIS,831.889,3.48743,0.00174612,816583,2.53641,87.7185,0.100973,-2.5344,0.891878,0.0038974,0.00988541,1415,0.00173283,3.48743
3,1,Potentiostatic EIS,832.348,3.48742,0.000907321,809097,2.51709,87.7803,0.0974896,-2.5152,0.923045,0.00394747,0.00993622,1420,0.00175504,3.48742
3,1,Potentiostatic EIS,832.81,3.48742,0.000984152,801678.625,2.49318,87.7674,0.0971234,-2.49128,0.885726,0.00398216,0.00992843,1430,0.00178376,3.48742
3,1,Potentiostatic EIS,833.276,3.48743,0.000696599,794329,2.47302,87.7173,0.0985025,-2.47106,1.10536,0.00399818,0.00988745,1445,0.00181915,3.48743
3,1,Potentiostatic EIS,833.736,3.48742,0.000651395,787046,2.44869,87.7731,0.0951496,-2.44684,0.919552,0.00404538,0.0099058,1295,0.00164539,3.48742
3,1,Potentiostatic EIS,834.203,3.48742,0.000314801,779830.875,2.42769,87.7406,0.0957102,-2.42581,0.854843,0.00408215,0.00991034,1310,0.00167985,3.48742
3,1,Potentiostatic EIS,834.666,3.48744,-2.18644e-05,772681.375,2.40705,87.6864,0.0971699,-2.40509,0.856394,0.0041215,0.00992063,1330,0.00172128,3.48744
3,1,Potentiostatic EIS,835.125,3.48744,0.000146642,765597.375,2.3841,87.6809,0.0964725,-2.38215,0.902392,0.0041548,0.0099058,1350,0.00176333,3.48744
3,1,Potentiostatic EIS,835.588,3.48743,-0.000312526,758578,2.3619,87.6322,0.0975793,-2.35989,1.03928,0.00418846,0.00989278,1370,0.00180601,3.48743
3,1,Potentiostatic EIS,836.049,3.48743,-0.000298579,751624,2.34317,87.7471,0.0921108,-2.34136,0.911568,0.00423789,0.00993023,1390,0.00184933,3.48743
3,1,Potentiostatic EIS,836.512,3.48741,-0.000815567,744733,2.3234,87.6506,0.0952446,-2.32145,1.00403,0.00426586,0.00991119,1410,0.0018933,3.48741
3,1,Potentiostatic EIS,836.978,3.48741,-0.000885521,737905.125,2.2984,87.7352,0.090828,-2.29661,1.0157,0.00432072,0.00993079,1435,0.00194469,3.48741
3,1,Potentiostatic EIS,837.441,3.48741,-0.00131107,731140,2.28189,87.7256,0.0905568,-2.2801,0.908009,0.00434689,0.00991915,1310,0.00179172,3.48741
3,1,Potentiostatic EIS,837.905,3.48741,-0.00132648,724437,2.25439,87.7133,0.0899494,-2.25259,0.937592,0.00439358,0.0099049,1340,0.00184971,3.48741
3,1,Potentiostatic EIS,838.371,3.4874,-0.00168865,717795.25,2.23684,87.7674,0.0871381,-2.23514,0.898971,0.00442474,0.00989748,1365,0.00190166,3.4874
3,1,Potentiostatic EIS,838.834,3.48741,-0.00145156,711215,2.22545,87.7399,0.0877639,-2.22372,0.880752,0.00444259,0.00988681,1395,0.00196143,3.48741
3,1,Potentiostatic EIS,839.299,3.4874,-0.00172444,704694,2.19826,87.7191,0.0874894,-2.19652,0.857057,0.00449789,0.00988749,1425,0.00202215,3.4874
3,1,Potentiostatic EIS,839.767,3.48741,-0.00162048,698233.5,2.18235,87.6844,0.0881764,-2.18057,0.927882,0.00452897,0.0098838,1315,0.00188332,3.48741
3,1,Potentiostatic EIS,840.239,3.48739,-0.00222555,691832,2.16552,87.5981,0.0907525,-2.16362,0.920252,0.004563,0.00988121,1350,0.00195134,3.48739
3,1,Potentiostatic EIS,840.711,3.48743,-0.00195454,685489.375,2.13979,87.6816,0.0865608,-2.13804,0.878285,0.00460627,0.00985649,1385,0.00202045,3.48743
3,1,Potentiostatic EIS,841.184,3.4874,-0.00198904,679205,2.12097,87.5263,0.091543,-2.119,1.03277,0.00464022,0.00984196,1420,0.00209068,3.4874
3,1,Potentiostatic EIS,841.653,3.4874,-0.00213214,672978,2.1027,87.5595,0.0895355,-2.10079,0.883616,0.00467958,0.00983963,1320,0.00196143,3.4874
3,1,Potentiostatic EIS,842.131,3.48741,-0.00219598,666808,2.08397,87.5515,0.0890316,-2.08207,0.912468,0.00470882,0.00981338,1360,0.00203957,3.48741
3,1,Potentiostatic EIS,842.6,3.48738,-0.00275806,660695,2.06587,87.493,0.0903637,-2.06389,0.920125,0.00475374,0.0098208,1400,0.00211898,3.48738
3,1,Potentiostatic EIS,843.076,3.48739,-0.00273829,654637.375,2.04828,87.4661,0.0905559,-2.04628,0.83396,0.00479292,0.00981742,1305,0.00199347,3.48739
3,1,Potentiostatic EIS,843.553,3.48738,-0.0030585,648635.625,2.02791,87.3228,0.094723,-2.0257,0.978706,0.00483177,0.00979831,1350,0.00208129,3.48738
3,1,Potentiostatic EIS,844.029,3.48738,-0.00293459,642689,2.00981,87.3039,0.0945392,-2.00758,1.1717,0.00488576,0.00981933,1390,0.00216279,3.48738
3,1,Potentiostatic EIS,844.51,3.48737,-0.00305498,636796.75,1.99269,87.2323,0.0962194,-1.99036,0.994689,0.00491626,0.00979623,1305,0.00204932,3.48737
3,1,Potentiostatic EIS,844.991,3.4874,-0.00263262,630959,1.97384,87.2299,0.095392,-1.97153,0.909119,0.00495103,0.00977292,1355,0.00214753,3.4874
3,1,Potentiostatic EIS,845.471,3.48739,-0.0029437,625174,1.95677,87.1557,0.0970983,-1.95436,0.856224,0.0049978,0.00977966,1400,0.00223938,3.48739
3,1,Potentiostatic EIS,845.949,3.48739,-0.00293906,619442,1.93751,87.2367,0.0934073,-1.93526,0.987203,0.00503218,0.00975045,1320,0.00213095,3.48739
3,1,Potentiostatic EIS,846.429,3.48737,-0.00340191,613763.25,1.92348,87.1286,0.096357,-1.92106,0.861361,0.0050596,0.00973162,1370,0.00223213,3.48737
3,1,Potentiostatic EIS,846.913,3.48739,-0.00321608,608136,1.90704,87.1746,0.0940014,-1.90472,0.838756,0.00509878,0.00972307,1420,0.002335,3.48739
3,1,Potentiostatic EIS,847.397,3.48739,-0.00334247,602560.875,1.8876,87.2521,0.0904929,-1.88542,0.899198,0.0051374,0.00969787,1350,0.00224044,3.48739
3,1,Potentiostatic EIS,847.886,3.48739,-0.0032224,597037,1.8705,87.1088,0.0943485,-1.86812,0.797748,0.00520245,0.0097312,1405,0.00235329,3.48739
3,1,Potentiostatic EIS,848.371,3.48738,-0.00372343,591562.875,1.85267,87.1442,0.0923055,-1.85037,0.939524,0.00523085,0.00969017,1335,0.00225673,3.48738
3,1,Potentiostatic EIS,848.856,3.48738,-0.00359628,586139,1.83557,87.1088,0.0925854,-1.83323,0.942211,0.00527452,0.00968155,1390,0.00237145,3.48738
3,1,Potentiostatic EIS,849.341,3.48736,-0.00383518,580766,1.82116,87.1692,0.0899417,-1.81893,0.9088,0.005309,0.00966857,1330,0.00229008,3.48736
3,1,Potentiostatic EIS,849.848,3.48737,-0.00373433,575441.125,1.80519,87.1715,0.0890789,-1.803,0.863032,0.00552735,0.00997797,1385,0.00240685,3.48737
3,1,Potentiostatic EIS,850.374,3.48736,-0.00408199,570166,1.78723,87.0793,0.0910663,-1.78491,1.03945,0.00557449,0.00996287,1325,0.00232389,3.48736
3,1,Potentiostatic EIS,850.903,3.48737,-0.00408171,564938.25,1.77102,87.1679,0.0875053,-1.76886,0.957532,0.00562932,0.00996965,1385,0.0024516,3.48737
3,1,Potentiostatic EIS,851.432,3.48734,-0.0045541,559758.875,1.75632,86.9862,0.0923415,-1.75389,0.916636,0.00568698,0.00998838,1335,0.00238496,3.48734
3,1,Potentiostatic EIS,851.962,3.48737,-0.00432999,554626.875,1.73843,87.1037,0.0878399,-1.73621,0.96411,0.00573033,0.00996182,1395,0.0025152,3.48737
3,1,Potentiostatic EIS,852.501,3.48735,-0.00451115,549542,1.72206,87.1889,0.0844569,-1.71999,0.961455,0.0057873,0.00996613,1345,0.00244749,3.48735
3,1,Potentiostatic EIS,853.035,3.48737,-0.0043135,544504,1.70773,87.1007,0.086377,-1.70554,0.926868,0.00582436,0.00994647,1410,0.00258951,3.48737
3,1,Potentiostatic EIS,853.561,3.48735,-0.00461186,539512,1.69354,87.1367,0.0845975,-1.69142,0.968158,0.00587544,0.00995033,1360,0.0025208,3.48735
3,1,Potentiostatic EIS,854.094,3.48736,-0.00429784,534566,1.67659,87.1937,0.0820856,-1.67458,0.81989,0.00593128,0.00994435,1320,0.00246929,3.48736
3,1,Potentiostatic EIS,854.633,3.48734,-0.00473955,529665,1.66435,87.1357,0.0831692,-1.66228,0.876597,0.00597999,0.00995293,1385,0.00261486,3.48734
3,1,Potentiostatic EIS,855.17,3.48735,-0.00450029,524808.75,1.65089,87.1549,0.0819437,-1.64885,0.928219,0.00602779,0.00995121,1345,0.00256284,3.48735
3,1,Potentiostatic EIS,855.712,3.48735,-0.00463294,519997.25,1.63442,87.1245,0.0819925,-1.63236,0.970528,0.00608422,0.00994417,1415,0.00272117,3.48735
3,1,Potentiostatic EIS,856.263,3.48737,-0.00428866,515230,1.62164,87.1872,0.0795795,-1.61968,0.924592,0.00613875,0.00995482,1380,0.00267842,3.48737
3,1,Potentiostatic EIS,856.81,3.48736,-0.00469553,510506.25,1.6066,87.2547,0.0769503,-1.60476,0.890308,0.00619758,0.00995707,1345,0.00263464,3.48736
3,1,Potentiostatic EIS,857.352,3.48735,-0.00494277,505826,1.59126,87.2346,0.0767717,-1.58941,0.933217,0.00624874,0.00994333,1315,0.00259971,3.48735
3,1,Potentiostatic EIS,857.898,3.48738,-0.00463674,501188,1.57592,87.1654,0.0779336,-1.57399,0.914926,0.00633025,0.009976,1385,0.00276343,3.48738
3,1,Potentiostatic EIS,858.448,3.48736,-0.00460145,496594,1.56166,87.147,0.0777302,-1.55972,0.907325,0.00637148,0.0099501,1355,0.00272859,3.48736
3,1,Potentiostatic EIS,858.993,3.48735,-0.00483797,492041,1.5501,87.0744,0.0791167,-1.54808,0.993769,0.00642504,0.00995951,1330,0.00270303,3.48735
3,1,Potentiostatic EIS,859.534,3.48735,-0.00489247,487530,1.53468,87.1422,0.076514,-1.53277,0.903002,0.00648858,0.00995787,1405,0.00288188,3.48735
3,1,Potentiostatic EIS,860.074,3.48736,-0.00460597,483060,1.52126,87.1264,0.0762637,-1.51934,0.978276,0.0065341,0.00994003,1385,0.00286714,3.48736
3,1,Potentiostatic EIS,860.616,3.48734,-0.00494472,478631,1.50681,87.0349,0.0779449,-1.5048,1.10979,0.0066037,0.00995057,1365,0.00285188,3.48734
3,1,Potentiostatic EIS,861.153,3.48736,-0.00461259,474243,1.49166,87.0188,0.0775788,-1.48964,0.85742,0.00666156,0.00993679,1345,0.0028361,3.48736
3,1,Potentiostatic EIS,861.704,3.48734,-0.00506462,469895,1.47977,86.8024,0.0825421,-1.47747,0.929122,0.00671913,0.00994281,1325,0.00281978,3.48734
3,1,Potentiostatic EIS,862.248,3.48734,-0.00493057,465587,1.46792,86.8245,0.0813147,-1.46567,0.995888,0.00677678,0.00994781,1405,0.00301769,3.48734
3,1,Potentiostatic EIS,862.79,3.48735,-0.00473408,461319,1.45261,86.7645,0.0819845,-1.4503,0.776876,0.00685255,0.00995413,1395,0.00302394,3.48735
3,1,Potentiostatic EIS,863.344,3.48734,-0.00500884,457090,1.43805,86.7747,0.080908,-1.43577,0.820935,0.00691489,0.009944,1380,0.0030191,3.48734
3,1,Potentiostatic EIS,863.895,3.48736,-0.0049794,452899,1.42906,86.7296,0.0815254,-1.42673,0.905706,0.00696328,0.00995099,1370,0.00302496,3.48736
3,1,Potentiostatic EIS,864.437,3.48734,-0.00515253,448747,1.41424,86.633,0.0830604,-1.4118,0.927255,0.0070317,0.00994458,1360,0.00303066,3.48734
3,1,Potentiostatic EIS,864.988,3.48735,-0.00508056,444633,1.40315,86.5928,0.083393,-1.40067,0.910269,0.00709473,0.00995499,1355,0.00304746,3.48735
3,1,Potentiostatic EIS,865.536,3.48734,-0.00532212,440556,1.39242,86.6348,0.081734,-1.39001,1.00369,0.00713413,0.00993367,1350,0.00306431,3.48734
3,1,Potentiostatic EIS,866.085,3.48734,-0.00517739,436517,1.37705,86.6739,0.0798935,-1.37473,0.908095,0.0072228,0.00994613,1345,0.00308121,3.48734
3,1,Potentiostatic EIS,866.624,3.48733,-0.00568593,432515.25,1.36456,86.6259,0.0803121,-1.36219,1.06784,0.0072689,0.00991882,1345,0.00310972,3.48733
3,1,Potentiostatic EIS,867.171,3.48734,-0.00535281,428550,1.35177,86.6113,0.0799019,-1.3494,0.972001,0.00736443,0.00995503,1345,0.00313849,3.48734
3,1,Potentiostatic EIS,867.722,3.48731,-0.00556034,424621,1.34063,86.6081,0.0793179,-1.33828,0.987733,0.00742509,0.00995429,1345,0.00316753,3.48731
3,1,Potentiostatic EIS,868.265,3.48733,-0.00523739,420728,1.33027,86.4952,0.0813219,-1.32779,1.04173,0.00747017,0.00993736,1350,0.00320872,3.48733
3,1,Potentiostatic EIS,868.815,3.48733,-0.00529487,416871,1.3167,86.4267,0.0820628,-1.31414,0.907166,0.0075652,0.00996106,1355,0.00325041,3.48733
3,1,Potentiostatic EIS,869.372,3.48731,-0.00563465,413049,1.30955,86.4795,0.0804139,-1.30708,0.995047,0.00759942,0.00995185,1360,0.00329259,3.48731
3,1,Potentiostatic EIS,869.924,3.48734,-0.00485569,409262,1.29395,86.4916,0.0791832,-1.29152,0.988223,0.00768805,0.00994802,1365,0.00333527,3.48734
3,1,Potentiostatic EIS,870.48,3.48733,-0.00535685,405510,1.28256,86.4156,0.0801848,-1.28005,0.916771,0.00775063,0.00994076,1375,0.00339079,3.48733
3,1,Potentiostatic EIS,871.035,3.48734,-0.00545609,401792,1.27376,86.3963,0.0800616,-1.27124,0.885174,0.00781451,0.00995378,1385,0.00344706,3.48734
3,1,Potentiostatic EIS,871.587,3.48733,-0.00547595,398109,1.26216,86.3681,0.0799533,-1.25963,0.961056,0.00790697,0.00997994,1400,0.00351663,3.48733
3,1,Potentiostatic EIS,872.135,3.48732,-0.00523626,394459,1.25172,86.3761,0.0791164,-1.24921,0.928454,0.00796003,0.00996371,1330,0.00337171,3.48732
3,1,Potentiostatic EIS,872.692,3.4873,-0.00621345,390842,1.23898,86.3865,0.0780872,-1.23652,0.937379,0.00803843,0.00995952,1345,0.00344129,3.4873
3,1,Potentiostatic EIS,873.25,3.48731,-0.0058249,387259,1.22622,86.3376,0.0783275,-1.22371,0.869623,0.00811248,0.00994766,1365,0.00352477,3.48731
3,1,Potentiostatic EIS,873.804,3.4873,-0.00591448,383708.625,1.21608,86.4169,0.0760005,-1.2137,1.02652,0.00817506,0.00994151,1380,0.00359648,3.4873
3,1,Potentiostatic EIS,874.369,3.48731,-0.00574198,380191,1.20696,86.3373,0.077103,-1.20449,0.889836,0.00824265,0.00994859,1400,0.00368236,3.48731
3,1,Potentiostatic EIS,874.933,3.48731,-0.00547782,376705,1.19365,86.3625,0.0757303,-1.19125,0.965527,0.00833161,0.00994507,1345,0.00357043,3.48731
3,1,Potentiostatic EIS,875.499,3.48731,-0.00580588,373252,1.18477,86.3208,0.0760278,-1.18233,1.05892,0.00840099,0.00995332,1365,0.00365705,3.48731
3,1,Potentiostatic EIS,876.065,3.4873,-0.00588286,369830,1.17261,86.2798,0.0760841,-1.17014,0.914719,0.00848183,0.00994587,1390,0.00375849,3.4873
3,1,Potentiostatic EIS,876.636,3.48731,-0.00591948,366439,1.16144,86.2755,0.0754458,-1.15898,0.902991,0.00855983,0.0099417,1340,0.00365682,3.48731
3,1,Potentiostatic EIS,877.206,3.48732,-0.00579105,363079,1.15289,86.2186,0.0760333,-1.15038,1.01423,0.00862147,0.00993965,1365,0.00375951,3.48732
3,1,Potentiostatic EIS,877.781,3.48731,-0.00607466,359751,1.14177,86.105,0.0775581,-1.13913,0.923944,0.00871294,0.00994817,1395,0.00387769,3.48731
3,1,Potentiostatic EIS,878.357,3.48729,-0.00612913,356452,1.13,86.171,0.0754606,-1.12748,0.89272,0.00880982,0.00995517,1350,0.00378732,3.48729
3,1,Potentiostatic EIS,878.936,3.4873,-0.00606697,353185,1.1204,86.1811,0.074622,-1.11791,0.93102,0.00887339,0.00994178,1380,0.00390731,3.4873
3,1,Potentiostatic EIS,879.515,3.48729,-0.00674995,349946.5,1.1105,86.1083,0.0753706,-1.10794,1.02705,0.0089548,0.00994436,1340,0.00382916,3.48729
3,1,Potentiostatic EIS,880.098,3.4873,-0.00603826,346738,1.10018,86.1185,0.0744741,-1.09766,0.928247,0.00903468,0.00993981,1375,0.00396553,3.4873
3,1,Potentiostatic EIS,880.681,3.48728,-0.00661014,343559,1.08977,86.0728,0.0746372,-1.08721,0.853783,0.00911583,0.00993413,1340,0.00390035,3.48728
3,1,Potentiostatic EIS,881.26,3.4873,-0.00606958,340410,1.08105,86.0616,0.0742512,-1.0785,1.02967,0.00918445,0.00992891,1375,0.00403925,3.4873
3,1,Potentiostatic EIS,881.846,3.48729,-0.00632636,337288.625,1.07052,85.982,0.0750108,-1.06789,0.918039,0.00927744,0.00993164,1345,0.00398768,3.48729
3,1,Potentiostatic EIS,882.436,3.48731,-0.00637872,334196,1.05926,86.0974,0.0720934,-1.05681,0.833193,0.00937865,0.00993448,1380,0.00412931,3.48731
3,1,Potentiostatic EIS,883.024,3.48731,-0.00572042,331132.5,1.051,86.0374,0.0726291,-1.04849,0.993213,0.0094482,0.00993009,1355,0.00409202,3.48731
3,1,Potentiostatic EIS,883.616,3.48729,-0.00605863,328097,1.04348,85.9469,0.0737544,-1.04087,0.940174,0.0095175,0.00993133,1395,0.0042518,3.48729
3,1,Potentiostatic EIS,884.21,3.48732,-0.00580869,325089,1.03414,86.067,0.0709322,-1.03171,0.981053,0.00960511,0.00993307,1370,0.00421424,3.48732
3,1,Potentiostatic EIS,884.809,3.48728,-0.00642007,322108.25,1.02386,85.9554,0.0722168,-1.02131,1.06478,0.00971883,0.00995074,1345,0.00417561,3.48728
3,1,Potentiostatic EIS,885.415,3.48729,-0.00637632,319155.125,1.01433,85.9926,0.0708871,-1.01185,0.991395,0.00981823,0.00995891,1390,0.00435525,3.48729
3,1,Potentiostatic EIS,886.017,3.4873,-0.0059713,316229,1.00611,85.952,0.071024,-1.0036,0.984206,0.0098816,0.00994204,1370,0.0043323,3.4873
3,1,Potentiostatic EIS,886.63,3.48728,-0.00687618,313329.875,0.998031,85.9331,0.0707818,-0.995517,1.09993,0.00996071,0.0099411,1355,0.00432452,3.48728
3,1,Potentiostatic EIS,887.24,3.48729,-0.00651406,310457,0.988326,85.8532,0.0714681,-0.985739,0.99179,0.0100575,0.00994012,1340,0.00431621,3.48729
3,1,Potentiostatic EIS,887.849,3.48727,-0.00649903,307611,0.981463,85.8286,0.0713918,-0.978863,1.0241,0.0101169,0.00992937,1390,0.00451869,3.48727
3,1,Potentiostatic EIS,888.467,3.48726,-0.00688954,304790.875,0.971763,85.7975,0.0712131,-0.96915,1.08964,0.0102308,0.00994187,1375,0.00451129,3.48726
3,1,Potentiostatic EIS,889.083,3.48727,-0.00683827,301997,0.963828,85.7712,0.0710721,-0.961204,1.05462,0.0103116,0.0099386,1365,0.00451992,3.48727
3,1,Potentiostatic EIS,889.704,3.48727,-0.00685007,299228,0.954114,85.7719,0.0703445,-0.951517,1.13198,0.0104205,0.00994236,1360,0.00454503,3.48727
3,1,Potentiostatic EIS,890.332,3.48726,-0.00679695,296484.5,0.946616,85.6661,0.0715351,-0.943909,0.942953,0.0105051,0.00994436,1350,0.00455336,3.48726
3,1,Potentiostatic EIS,890.957,3.48726,-0.00684898,293766,0.939491,85.6675,0.0709738,-0.936806,0.965311,0.0105924,0.00995151,1345,0.00457847,3.48726
3,1,Potentiostatic EIS,891.582,3.48726,-0.00701029,291073,0.930745,85.7007,0.0697745,-0.928126,0.972958,0.0106952,0.00995448,1340,0.00460366,3.48726
3,1,Potentiostatic EIS,892.216,3.48727,-0.00686274,288405,0.924366,85.6122,0.0707199,-0.921657,0.977473,0.0107958,0.00997928,1340,0.00464625,3.48727
3,1,Potentiostatic EIS,892.85,3.48726,-0.00715638,285760,0.914983,85.5991,0.0702115,-0.912286,1.04827,0.0108819,0.00995681,1340,0.00468924,3.48726
3,1,Potentiostatic EIS,893.48,3.48726,-0.00745242,283141,0.907013,85.5197,0.0708517,-0.904241,1.12481,0.0109538,0.00993525,1340,0.00473263,3.48726
3,1,Potentiostatic EIS,894.12,3.48726,-0.0068826,280545,0.89911,85.5201,0.0702294,-0.896363,0.953977,0.0110477,0.00993312,1345,0.00479424,3.48726
3,1,Potentiostatic EIS,894.757,3.48726,-0.00756026,277973,0.888937,85.3675,0.0717941,-0.886033,2.51454,0.0112237,0.00997716,1350,0.00485659,3.48726
3,1,Potentiostatic EIS,895.424,3.48726,-0.00735373,275424,0.883028,85.4449,0.0701286,-0.880239,0.906994,0.0112752,0.0099563,1355,0.00491968,3.48726
3,1,Potentiostatic EIS,896.064,3.48727,-0.00681045,272899,0.875787,85.4111,0.0700675,-0.872979,0.970665,0.0113883,0.00997373,1365,0.00500185,3.48727
3,1,Potentiostatic EIS,896.711,3.48725,-0.00702598,270397,0.868554,85.4396,0.0690585,-0.865804,1.01247,0.0114842,0.00997471,1370,0.00506662,3.48725
3,1,Potentiostatic EIS,897.442,3.48726,-0.0069951,267918,0.860911,85.3899,0.0691948,-0.858126,0.971878,0.011568,0.00995908,1385,0.00516949,3.48726
3,1,Potentiostatic EIS,898.13,3.48725,-0.00706585,265462,0.852324,85.401,0.06834,-0.84958,1.04072,0.0117076,0.0099787,1340,0.0050478,3.48725
3,1,Potentiostatic EIS,898.788,3.48724,-0.00737887,263028,0.845795,85.3578,0.0684522,-0.843021,1.12167,0.0117907,0.00997254,1355,0.00515154,3.48724
3,1,Potentiostatic EIS,899.441,3.48724,-0.00711709,260616.75,0.837874,85.368,0.067663,-0.835137,1.0656,0.0118935,0.00996522,1370,0.00525676,3.48724
3,1,Potentiostatic EIS,900.108,3.48725,-0.00713133,258227,0.828409,85.2873,0.0680611,-0.825609,0.966499,0.0119952,0.00993705,1385,0.00536349,3.48725
3,1,Potentiostatic EIS,900.772,3.48725,-0.00724981,255860,0.82262,85.2604,0.0679711,-0.819807,0.840478,0.0120662,0.00992591,1350,0.00527632,3.48725
3,1,Potentiostatic EIS,901.441,3.48725,-0.0071117,253514,0.816476,85.2801,0.0671835,-0.813707,1.01868,0.012147,0.00991746,1370,0.00540403,3.48725
3,1,Potentiostatic EIS,902.115,3.48725,-0.00707311,251190,0.808999,85.2345,0.0672105,-0.806202,0.909645,0.0122299,0.00989374,1340,0.00533461,3.48725
3,1,Potentiostatic EIS,902.783,3.48724,-0.00764806,248887,0.801812,85.1787,0.0673913,-0.798975,1.04564,0.0123237,0.00988129,1365,0.00548441,3.48724
3,1,Potentiostatic EIS,903.461,3.48725,-0.00736628,246605,0.794576,85.1176,0.0676277,-0.791693,0.999351,0.0124542,0.00989575,1385,0.00561626,3.48725
3,1,Potentiostatic EIS,904.134,3.48725,-0.00711924,244344,0.788057,85.2592,0.0651316,-0.785361,1.09149,0.012524,0.00986949,1360,0.00556591,3.48725
3,1,Potentiostatic EIS,904.807,3.48722,-0.0076301,242104,0.780189,85.2259,0.0649325,-0.777482,1.0222,0.0126219,0.00984745,1340,0.00553481,3.48722
3,1,Potentiostatic EIS,905.493,3.48722,-0.00801821,239885,0.773509,85.2819,0.063624,-0.770888,1.01967,0.0127244,0.0098426,1365,0.00569023,3.48722
3,1,Potentiostatic EIS,906.181,3.48723,-0.00770563,237685,0.766947,85.2345,0.0637166,-0.764296,0.944407,0.0128015,0.00981785,1345,0.00565874,3.48723
3,1,Potentiostatic EIS,906.883,3.4872,-0.00792905,235506,0.7598,85.1981,0.063604,-0.757133,1.04661,0.0129258,0.00982098,1380,0.00585972,3.4872
3,1,Potentiostatic EIS,907.584,3.48722,-0.00765202,233347,0.753209,85.2038,0.0629776,-0.750571,1.52417,0.0130204,0.00980716,1360,0.00582823,3.48722
3,1,Potentiostatic EIS,908.286,3.48723,-0.00748387,231208,0.746806,85.1978,0.0625194,-0.744185,0.990552,0.013115,0.00979454,1350,0.0058389,3.48723
3,1,Potentiostatic EIS,908.989,3.48723,-0.00756363,229088.125,0.74021,85.2204,0.0616766,-0.737636,0.979063,0.0132164,0.00978202,1380,0.00602388,3.48723
3,1,Potentiostatic EIS,909.691,3.48722,-0.00784717,226988,0.733286,85.1906,0.0614791,-0.730704,1.05816,0.0133008,0.00975363,1370,0.00603557,3.48722
3,1,Potentiostatic EIS,910.398,3.48722,-0.00750988,224907,0.726986,85.1667,0.0612541,-0.724401,1.06348,0.0134067,0.00974652,1360,0.00604695,3.48722
3,1,Potentiostatic EIS,911.109,3.48723,-0.0075458,222845,0.721702,85.1762,0.0606887,-0.719145,1.02051,0.0134871,0.00973356,1355,0.00608046,3.48723
3,1,Potentiostatic EIS,911.831,3.48724,-0.00782607,220802,0.713394,85.1248,0.0606278,-0.710813,0.959386,0.0136272,0.009722,1350,0.00611408,3.48724
3,1,Potentiostatic EIS,912.547,3.48722,-0.00771493,218777,0.707884,85.1134,0.0603007,-0.705311,1.10368,0.0137168,0.00971005,1345,0.0061478,3.48722
3,1,Potentiostatic EIS,913.27,3.48723,-0.00761554,216771.75,0.701487,85.1339,0.0595054,-0.698959,1.15907,0.0138068,0.00968563,1345,0.00620468,3.48723
3,1,Potentiostatic EIS,913.996,3.48721,-0.00780859,214784,0.694076,85.0488,0.0599038,-0.691486,1.03038,0.0139602,0.00968926,1345,0.00626209,3.48721
3,1,Potentiostatic EIS,914.722,3.48721,-0.00769576,212815,0.688075,85.2031,0.0575391,-0.685665,1.07827,0.0140347,0.00965645,1345,0.00632004,3.48721
3,1,Potentiostatic EIS,915.488,3.48722,-0.00755606,210864,0.682605,85.0964,0.0583488,-0.680107,1.14282,0.014133,0.00964657,1345,0.00637852,3.48722
3,1,Potentiostatic EIS,916.249,3.48722,-0.00757695,208931,0.676239,85.0379,0.0584929,-0.673705,0.954957,0.0147202,0.00995436,1350,0.00646146,3.48722
3,1,Potentiostatic EIS,917.058,3.4872,-0.00779521,207015,0.669561,84.9662,0.0587494,-0.666979,0.945174,0.0148492,0.00994249,1355,0.00654541,3.4872
3,1,Potentiostatic EIS,917.864,3.4872,-0.00820302,205118,0.664213,85.0178,0.0576839,-0.661704,1.1107,0.0149884,0.00995549,1365,0.00665472,3.4872
3,1,Potentiostatic EIS,918.674,3.48718,-0.00879721,203237,0.658146,84.9988,0.0573748,-0.65564,0.939993,0.0150853,0.00992833,1375,0.0067655,3.48718
3,1,Potentiostatic EIS,919.498,3.48718,-0.00827762,201374,0.652314,84.905,0.0579304,-0.649737,0.960132,0.0152082,0.00992057,1385,0.00687776,3.48718
3,1,Potentiostatic EIS,920.325,3.48719,-0.00795496,199528,0.645565,84.991,0.0563663,-0.6431,1.00898,0.0153908,0.00993576,1355,0.00679104,3.48719
3,1,Potentiostatic EIS,921.148,3.48721,-0.0078699,197698,0.640451,84.8938,0.057001,-0.63791,1.08187,0.0155056,0.00993058,1365,0.00690446,3.48721
3,1,Potentiostatic EIS,921.977,3.48717,-0.00809374,195886,0.635045,84.8878,0.0565864,-0.632519,1.08941,0.0156377,0.00993064,1380,0.00704492,3.48717
3,1,Potentiostatic EIS,922.813,3.4872,-0.00783237,194090,0.629505,84.8908,0.0560596,-0.627004,1.03496,0.0157968,0.00994423,1360,0.00700706,3.4872
3,1,Potentiostatic EIS,923.646,3.48719,-0.0080855,192310,0.624729,84.8106,0.0565061,-0.622168,1.05535,0.0159012,0.00993397,1375,0.0071499,3.48719
3,1,Potentiostatic EIS,924.477,3.4872,-0.00793989,190547,0.619076,84.7923,0.0561915,-0.616521,1.01692,0.0160776,0.00995334,1355,0.00711109,3.4872
3,1,Potentiostatic EIS,925.324,3.48719,-0.00802285,188800,0.614369,84.8133,0.0555394,-0.611854,1.03659,0.0161967,0.00995074,1375,0.00728282,3.48719
3,1,Potentiostatic EIS,926.169,3.48719,-0.00788842,187070,0.608345,84.6891,0.0563081,-0.605734,1.02457,0.0163504,0.00994669,1360,0.00727002,3.48719
3,1,Potentiostatic EIS,927.022,3.48718,-0.00778455,185354,0.603746,84.6172,0.0566369,-0.601084,1.04348,0.0164469,0.00992974,1345,0.00725637,3.48718
3,1,Potentiostatic EIS,927.877,3.48718,-0.00831484,183655,0.59812,84.567,0.0566308,-0.595433,0.980977,0.0166172,0.00993908,1370,0.00745963,3.48718
3,1,Potentiostatic EIS,928.732,3.48717,-0.00817879,181971,0.593992,84.5531,0.0563835,-0.59131,1.13183,0.0167047,0.00992251,1360,0.0074737,3.48717
3,1,Potentiostatic EIS,929.6,3.48716,-0.00894281,180303,0.588131,84.5332,0.0560307,-0.585456,1.02128,0.0169287,0.00995635,1350,0.00748739,3.48716
3,1,Potentiostatic EIS,930.472,3.48716,-0.00850089,178650,0.584035,84.5217,0.0557574,-0.581367,1.04379,0.0170572,0.00996202,1380,0.0077246,3.48716
3,1,Potentiostatic EIS,931.337,3.48718,-0.00814876,177012,0.578846,84.3797,0.0566894,-0.576064,1.10333,0.0172083,0.00996101,1375,0.00776783,3.48718
3,1,Potentiostatic EIS,932.215,3.48716,-0.00850975,175389.375,0.573687,84.4088,0.0558942,-0.570957,0.982879,0.0173773,0.00996914,1370,0.00781119,3.48716
3,1,Potentiostatic EIS,933.103,3.48714,-0.00913703,173781,0.568017,84.3801,0.0556254,-0.565287,1.01594,0.0175138,0.00994816,1365,0.0078547,3.48714
3,1,Potentiostatic EIS,933.996,3.48716,-0.00862557,172188,0.562396,84.3675,0.0551973,-0.559681,1.09898,0.0177156,0.0099632,1365,0.00792738,3.48716
3,1,Potentiostatic EIS,934.889,3.48716,-0.00853273,170609,0.557782,84.26,0.0557858,-0.554986,1.10206,0.0178436,0.00995291,1365,0.00800073,3.48716
3,1,Potentiostatic EIS,935.782,3.48717,-0.00863077,169045,0.552985,84.2838,0.0550778,-0.550235,1.04963,0.0180008,0.00995418,1365,0.00807476,3.48717
3,1,Potentiostatic EIS,936.686,3.48716,-0.00874382,167495,0.547975,84.1077,0.0562548,-0.54508,1.17899,0.0181405,0.00994053,1370,0.00817932,3.48716
3,1,Potentiostatic EIS,937.591,3.48717,-0.00822415,165960,0.543614,84.2256,0.054694,-0.540856,1.2292,0.0183185,0.00995822,1375,0.00828513,3.48717
3,1,Potentiostatic EIS,938.5,3.48717,-0.00819374,164438,0.538323,84.1291,0.0550638,-0.535499,1.09127,0.0185104,0.00996459,1350,0.00820976,3.48717
3,1,Potentiostatic EIS,939.411,3.48717,-0.00851032,162930.875,0.53441,84.1103,0.0548378,-0.531589,1.24049,0.0186364,0.00995954,1355,0.00831641,3.48717
3,1,Potentiostatic EIS,940.329,3.48716,-0.00859676,161437,0.529337,84.0674,0.0547118,-0.526502,1.01483,0.0188478,0.00997687,1365,0.00845531,3.48716
3,1,Potentiostatic EIS,941.261,3.48715,-0.0087797,159957,0.525152,84.1413,0.0536056,-0.522409,1.1613,0.0189815,0.00996823,1380,0.00862732,3.48715
3,1,Potentiostatic EIS,942.189,3.48717,-0.00810208,158491,0.520233,83.9761,0.0545954,-0.517361,1.09749,0.0191559,0.00996557,1360,0.00858096,3.48717
3,1,Potentiostatic EIS,943.114,3.48718,-0.00821194,157037,0.515744,83.9671,0.0542046,-0.512888,1.12515,0.0193404,0.00997469,1375,0.00875587,3.48718
3,1,Potentiostatic EIS,944.056,3.48715,-0.00835739,155598,0.510903,84.093,0.052579,-0.50819,1.13071,0.0195137,0.00996968,1360,0.00874049,3.48715
3,1,Potentiostatic EIS,944.999,3.48716,-0.00878829,154171,0.5074,84.0367,0.0527147,-0.504655,1.04661,0.0196577,0.00997433,1375,0.00891865,3.48716
3,1,Potentiostatic EIS,945.947,3.48714,-0.00884676,152758,0.502183,83.9802,0.0526649,-0.499413,1.15315,0.0198455,0.00996603,1360,0.00890298,3.48714
3,1,Potentiostatic EIS,946.903,3.48714,-0.00883939,151357,0.497787,83.9669,0.0523188,-0.49503,1.04565,0.0200367,0.00997403,1350,0.00891929,3.48714
3,1,Potentiostatic EIS,947.865,3.48713,-0.00925842,149970,0.49362,83.9627,0.0519168,-0.490882,1.15357,0.0202068,0.0099745,1375,0.00916852,3.48713
3,1,Potentiostatic EIS,948.826,3.48712,-0.00940047,148594.75,0.489744,83.9396,0.0517052,-0.487007,1.05616,0.0203222,0.00995268,1365,0.00918606,3.48712
3,1,Potentiostatic EIS,949.786,3.48715,-0.00876939,147232,0.484749,84.0108,0.050579,-0.482104,1.12202,0.0205675,0.0099701,1360,0.0092371,3.48715
3,1,Potentiostatic EIS,950.757,3.48714,-0.00884806,145883,0.481556,83.9636,0.0506409,-0.478886,1.08389,0.0206904,0.0099636,1355,0.00928829,3.48714
3,1,Potentiostatic EIS,951.735,3.48713,-0.00907647,144545,0.47709,84.0021,0.0498523,-0.474478,1.05746,0.0208749,0.0099592,1355,0.00937423,3.48713
3,1,Potentiostatic EIS,952.721,3.48712,-0.00942461,143220,0.472128,83.9302,0.0499227,-0.469482,1.16238,0.0210933,0.00995875,1355,0.00946098,3.48712
3,1,Potentiostatic EIS,953.721,3.48712,-0.00937393,141907,0.468801,83.9809,0.0491585,-0.466216,1.10065,0.0212529,0.00996338,1355,0.00954851,3.48712
3,1,Potentiostatic EIS,954.71,3.4871,-0.00974982,140606,0.464449,83.9652,0.048829,-0.461875,1.15741,0.0214913,0.00998165,1355,0.00963687,3.4871
3,1,Potentiostatic EIS,955.71,3.4871,-0.0100477,139317,0.461121,83.8907,0.0490752,-0.458502,1.23638,0.0216521,0.00998425,1360,0.00976192,3.4871
3,1,Potentiostatic EIS,956.716,3.48709,-0.0100126,138040,0.456017,83.728,0.0498196,-0.453288,1.20414,0.0218793,0.00997738,1365,0.00988847,3.48709
3,1,Potentiostatic EIS,957.729,3.48712,-0.00976154,136774,0.452269,83.7303,0.0493916,-0.449564,1.12806,0.0220425,0.0099691,1375,0.0100531,3.48712
3,1,Potentiostatic EIS,958.75,3.4871,-0.00994288,135520,0.448194,83.7124,0.0490858,-0.445498,1.20007,0.0222632,0.00997831,1355,0.00999852,3.4871
3,1,Potentiostatic EIS,959.99,3.48711,-0.00987526,134277.625,0.445013,83.7656,0.0483268,-0.442382,1.17109,0.0224237,0.00997886,1365,0.0101655,3.48711
3,1,Potentiostatic EIS,961.015,3.48709,-0.0101796,133047,0.440913,83.5958,0.0491806,-0.438162,1.14137,0.0226102,0.00996917,1350,0.0101468,3.48709
3,1,Potentiostatic EIS,962.059,3.48709,-0.010251,131826.75,0.437564,83.5968,0.0487991,-0.434834,1.33042,0.0228245,0.00998726,1365,0.0103545,3.48709
3,1,Potentiostatic EIS,963.1,3.48707,-0.0102297,130618,0.432772,83.4946,0.0490321,-0.429985,1.19359,0.0230598,0.00997967,1350,0.0103355,3.48707
3,1,Potentiostatic EIS,964.156,3.48705,-0.0105818,129421,0.429559,83.4479,0.0490158,-0.426753,1.1965,0.0232262,0.00997705,1365,0.010547,3.48705
3,1,Potentiostatic EIS,965.214,3.48705,-0.0105956,128234,0.426007,83.4276,0.0487605,-0.423207,1.27598,0.0234543,0.00999168,1360,0.0106056,3.48705
3,1,Potentiostatic EIS,966.271,3.48708,-0.0101485,127058,0.422445,83.3377,0.0490109,-0.419592,1.22109,0.0236218,0.00997892,1350,0.010625,3.48708
3,1,Potentiostatic EIS,967.333,3.48705,-0.0103876,125894,0.418305,83.3471,0.0484627,-0.415488,1.16875,0.023895,0.0099954,1370,0.0108822,3.48705
3,1,Potentiostatic EIS,968.406,3.48707,-0.0100191,124739,0.415363,83.2835,0.0485795,-0.412512,1.2939,0.024047,0.00998823,1370,0.0109829,3.48707
3,1,Potentiostatic EIS,969.487,3.48709,-0.0099741,123596,0.41185,83.1852,0.0488703,-0.40894,1.22155,0.0242607,0.00999181,1365,0.0110441,3.48709
3,1,Potentiostatic EIS,970.572,3.48707,-0.00995817,122463,0.408024,83.2189,0.0481782,-0.40517,1.3695,0.0244678,0.00998346,1365,0.0111463,3.48707
3,1,Potentiostatic EIS,971.667,3.48707,-0.0103484,121340,0.404486,83.1068,0.0485459,-0.401562,1.27318,0.0247213,0.00999948,1370,0.0112906,3.48707
3,1,Potentiostatic EIS,972.757,3.48705,-0.0106885,120228,0.400402,83.1408,0.0478203,-0.397536,1.22703,0.0249716,0.00999868,1370,0.0113951,3.48705
3,1,Potentiostatic EIS,973.876,3.48706,-0.0102301,119125,0.397469,83.1427,0.0474563,-0.394626,1.26049,0.0251493,0.00999605,1375,0.0115425,3.48706
3,1,Potentiostatic EIS,974.994,3.48704,-0.0106344,118033.125,0.394173,83.0679,0.0475737,-0.391291,1.13341,0.0253705,0.0100004,1355,0.0114798,3.48704
3,1,Potentiostatic EIS,976.111,3.48705,-0.0104342,116951,0.389536,83.0426,0.0471848,-0.386668,1.09136,0.0255721,0.00996131,1365,0.0116716,3.48705
3,1,Potentiostatic EIS,977.234,3.48705,-0.010253,115879,0.386734,83.0274,0.0469473,-0.383874,1.38748,0.0258851,0.0100107,1375,0.0118658,3.48705
3,1,Potentiostatic EIS,978.359,3.48706,-0.0101168,114816,0.384005,82.989,0.0468718,-0.381133,1.2784,0.026004,0.00998568,1360,0.011845,3.48706
3,1,Potentiostatic EIS,979.497,3.48705,-0.0102323,113763.75,0.380042,82.9632,0.0465575,-0.377179,1.2658,0.0262802,0.00998759,1370,0.0120425,3.48705
3,1,Potentiostatic EIS,980.645,3.48706,-0.0103461,112721,0.376557,82.8517,0.0468577,-0.37363,1.41622,0.0265857,0.010011,1365,0.0121096,3.48706
3,1,Potentiostatic EIS,981.802,3.48702,-0.0109961,111687,0.373324,82.8546,0.0464367,-0.370425,1.21698,0.0267574,0.00998921,1355,0.0121321,3.48702
3,1,Potentiostatic EIS,982.967,3.48703,-0.0107071,110663,0.370122,82.8353,0.0461621,-0.367232,1.22039,0.0269705,0.00998242,1370,0.0123799,3.48703
3,1,Potentiostatic EIS,984.132,3.48702,-0.0108843,109649,0.366184,82.756,0.0461739,-0.363261,1.28071,0.0273241,0.0100057,1365,0.0124488,3.48702
3,1,Potentiostatic EIS,985.316,3.48704,-0.0107328,108644,0.362861,82.7701,0.0456662,-0.359976,1.19392,0.0275006,0.0099789,1365,0.012564,3.48704
3,1,Potentiostatic EIS,986.5,3.48701,-0.0107466,107647,0.359934,82.7235,0.0455882,-0.357035,1.33996,0.0277379,0.00998381,1365,0.0126803,3.48701
3,1,Potentiostatic EIS,987.682,3.48704,-0.0103885,106661,0.357296,82.7065,0.0453593,-0.354405,1.20954,0.0279357,0.00998132,1365,0.0127976,3.48704
3,1,Potentiostatic EIS,988.875,3.48705,-0.0103832,105683,0.353585,82.6549,0.0452044,-0.350683,1.2396,0.0281938,0.00996891,1365,0.012916,3.48705
3,1,Potentiostatic EIS,990.078,3.48703,-0.0108817,104714,0.351011,82.6596,0.0448463,-0.348134,1.23976,0.0284261,0.00997788,1370,0.0130833,3.48703
3,1,Potentiostatic EIS,991.289,3.487,-0.0111209,103754,0.348451,82.5188,0.0453689,-0.345485,1.34601,0.0286375,0.00997879,1355,0.0130598,3.487
3,1,Potentiostatic EIS,992.501,3.48704,-0.0101507,102803,0.344671,82.5062,0.0449517,-0.341727,2.18119,0.0288814,0.00995458,1360,0.0132292,3.48704
3,1,Potentiostatic EIS,993.727,3.48704,-0.0101303,101860,0.341376,82.6274,0.0438059,-0.338554,1.26762,0.0291614,0.009955,1370,0.0134498,3.48704
3,1,Potentiostatic EIS,994.961,3.48702,-0.0109339,100926,0.338664,82.3789,0.0449143,-0.335673,1.1961,0.0293953,0.00995515,1360,0.0134752,3.48702
3,1,Potentiostatic EIS,996.203,3.48703,-0.0108091,100001,0.335716,82.4936,0.0438568,-0.332839,1.3743,0.0297478,0.0099869,1370,0.0136999,3.48703
3,1,Potentiostatic EIS,997.353,3.48704,-0.0100617,99084.2,0.333126,82.4142,0.0439764,-0.330211,1.18976,0.0299491,0.00997689,1360,0.0137257,3.48704
3,1,Potentiostatic EIS,998.508,3.48702,-0.0105318,98175.7,0.329953,82.3152,0.0441222,-0.32699,1.30184,0.030194,0.00996267,1355,0.0138018,3.48702
3,1,Potentiostatic EIS,999.668,3.48702,-0.0103936,97275.6,0.326744,82.3127,0.0437073,-0.323808,1.37644,0.0305063,0.00996776,1370,0.0140837,3.48702
3,1,Potentiostatic EIS,1000.84,3.48702,-0.0104381,96383.8,0.324268,82.3337,0.0432583,-0.32137,1.30934,0.0306995,0.00995486,1370,0.014214,3.48702
3,1,Potentiostatic EIS,1002.02,3.48701,-0.0111543,95500.1,0.321775,82.255,0.0433636,-0.31884,1.32861,0.0309616,0.00996268,1370,0.0143455,3.48701
3,1,Potentiostatic EIS,1003.21,3.48698,-0.0114524,94624.6,0.319332,82.2418,0.0431078,-0.316409,1.32451,0.0312814,0.00998919,1370,0.0144783,3.48698
3,1,Potentiostatic EIS,1004.39,3.487,-0.01089,93757.1,0.316085,82.2279,0.0427454,-0.313182,1.28625,0.0315389,0.00996899,1370,0.0146122,3.487
3,1,Potentiostatic EIS,1005.59,3.487,-0.010805,92897.6,0.313004,82.1624,0.0426828,-0.31008,1.28074,0.0318943,0.00998307,1355,0.014586,3.487
3,1,Potentiostatic EIS,1006.79,3.487,-0.0109369,92045.9,0.310938,82.2039,0.0421785,-0.308064,1.41217,0.0321047,0.00998258,1365,0.0148296,3.487
3,1,Potentiostatic EIS,1008.01,3.48701,-0.0111134,91202,0.308281,82.1589,0.0420576,-0.305399,1.37033,0.0324007,0.0099886,1370,0.0150216,3.48701
3,1,Potentiostatic EIS,1009.23,3.487,-0.0108175,90365.9,0.30573,82.0683,0.0421881,-0.302805,1.31397,0.0326249,0.00997445,1360,0.0150499,3.487
3,1,Potentiostatic EIS,1010.46,3.487,-0.0107281,89537.4,0.302671,81.9943,0.0421536,-0.299721,1.29306,0.0329496,0.0099729,1370,0.0153009,3.487
3,1,Potentiostatic EIS,1011.7,3.48698,-0.0108414,88716.5,0.300498,82.0025,0.0418084,-0.297575,1.35191,0.0331956,0.00997522,1365,0.0153861,3.48698
3,1,Potentiostatic EIS,1012.95,3.48697,-0.0111178,87903.1,0.297294,81.8626,0.0420813,-0.294301,1.34568,0.0335953,0.0099877,1360,0.0154716,3.48697
3,1,Potentiostatic EIS,1014.2,3.48697,-0.0111207,87097.2,0.295286,81.9294,0.0414561,-0.292361,1.31244,0.0338416,0.00999292,1355,0.0155573,3.48697
3,1,Potentiostatic EIS,1015.48,3.487,-0.0109904,86298.7,0.292403,81.8359,0.0415237,-0.289439,1.45884,0.0341692,0.00999117,1355,0.0157013,3.487
3,1,Potentiostatic EIS,1016.76,3.48697,-0.011143,85507.5,0.289939,81.8204,0.0412513,-0.286989,1.13986,0.0344762,0.00999601,1355,0.0158466,3.48697
3,1,Potentiostatic EIS,1018.04,3.48699,-0.0107433,84723.625,0.287997,81.795,0.0411018,-0.285049,1.42124,0.0347545,0.0100092,1355,0.0159932,3.48699
3,1,Potentiostatic EIS,1019.33,3.48698,-0.0109396,83946.8,0.285641,81.7442,0.0410157,-0.28268,1.31342,0.034959,0.00998568,1360,0.0162007,3.48698
3,1,Potentiostatic EIS,1020.63,3.487,-0.0109203,83177.3,0.282749,81.5972,0.0413187,-0.279714,1.37287,0.0353038,0.00998211,1365,0.0164107,3.487
3,1,Potentiostatic EIS,1021.93,3.48697,-0.011279,82414.7,0.280232,81.6092,0.0408928,-0.277232,1.28159,0.0356558,0.00999191,1370,0.0166233,3.48697
3,1,Potentiostatic EIS,1023.24,3.48697,-0.0112359,81659.1,0.277829,81.6036,0.0405689,-0.274851,1.3691,0.0359691,0.00999329,1360,0.0166546,3.48697
3,1,Potentiostatic EIS,1024.57,3.48697,-0.0113548,80910.4,0.275768,81.4236,0.0411247,-0.272684,1.36004,0.0362348,0.00999242,1355,0.0167469,3.48697
3,1,Potentiostatic EIS,1025.9,3.48696,-0.0115477,80168.6,0.273158,81.4599,0.0405646,-0.27013,1.40207,0.0365588,0.00998639,1365,0.0170266,3.48696
3,1,Potentiostatic EIS,1027.25,3.48695,-0.0115157,79433.6,0.271215,81.4365,0.0403853,-0.268192,1.50949,0.0368597,0.00999695,1365,0.0171842,3.48695
3,1,Potentiostatic EIS,1028.6,3.48699,-0.0106815,78705.4,0.268211,81.3193,0.0404804,-0.265138,1.28765,0.0372156,0.00998162,1360,0.0172796,3.48699
3,1,Potentiostatic EIS,1029.96,3.48693,-0.0118405,77983.8,0.265794,81.28,0.0402957,-0.262721,1.3734,0.0376041,0.00999492,1360,0.0174395,3.48693
3,1,Potentiostatic EIS,1031.32,3.48696,-0.010981,77268.9,0.2637,81.2246,0.0402304,-0.260613,1.29647,0.037858,0.00998316,1360,0.0176009,3.48696
3,1,Potentiostatic EIS,1032.7,3.48694,-0.011398,76560.5,0.261501,81.1758,0.0401149,-0.258406,1.49691,0.0382101,0.00999203,1365,0.017829,3.48694
3,1,Potentiostatic EIS,1034.08,3.48693,-0.0118378,75858.6,0.259224,81.2251,0.0395453,-0.25619,1.39808,0.0384621,0.00997034,1370,0.0180599,3.48693
3,1,Potentiostatic EIS,1035.47,3.48695,-0.0116897,75163,0.256424,81.1353,0.0395156,-0.253361,1.42817,0.0388763,0.00996885,1360,0.018094,3.48695
3,1,Potentiostatic EIS,1036.87,3.48695,-0.0113926,74474,0.254533,81.0452,0.0396192,-0.251431,1.39928,0.0392543,0.00999152,1365,0.0183286,3.48695
3,1,Potentiostatic EIS,1038.29,3.48692,-0.0117774,73791.2,0.252871,81.046,0.0393574,-0.24979,1.49996,0.0395383,0.00999815,1360,0.0184304,3.48692
3,1,Potentiostatic EIS,1039.72,3.48693,-0.0114155,73114.7,0.250055,80.9736,0.0392309,-0.246959,1.41556,0.0399013,0.00997755,1355,0.0185325,3.48693
3,1,Potentiostatic EIS,1041.16,3.48694,-0.0113945,72444.3,0.248078,80.876,0.0393382,-0.244939,1.41803,0.0402198,0.00997767,1370,0.0189111,3.48694
3,1,Potentiostatic EIS,1042.6,3.48691,-0.0119367,71780.2,0.24609,80.848,0.0391415,-0.242957,1.31383,0.0405474,0.0099783,1365,0.0190164,3.48691
3,1,Potentiostatic EIS,1044.05,3.4869,-0.0122372,71122.125,0.243895,80.7912,0.0390314,-0.240752,1.45565,0.0410081,0.0100017,1365,0.0191923,3.4869
3,1,Potentiostatic EIS,1045.51,3.48693,-0.0113695,70470.1,0.241894,80.8123,0.0386232,-0.238791,1.41979,0.0411807,0.0099614,1370,0.0194409,3.48693
3,1,Potentiostatic EIS,1046.98,3.4869,-0.0120169,69824,0.2394,80.7802,0.0383574,-0.236307,1.40499,0.0416133,0.0099622,1360,0.0194776,3.4869
3,1,Potentiostatic EIS,1048.46,3.48692,-0.0115613,69183.9,0.2375,80.7328,0.0382466,-0.234401,1.45072,0.0420086,0.00997712,1365,0.01973,3.48692
3,1,Potentiostatic EIS,1049.96,3.48692,-0.0115362,68549.5,0.23518,80.7842,0.037665,-0.232145,1.42694,0.0425638,0.0100102,1355,0.0197667,3.48692
3,1,Potentiostatic EIS,1051.45,3.48691,-0.0114951,67921.1,0.233236,80.6536,0.0378781,-0.23014,1.42026,0.042943,0.010016,1365,0.0200969,3.48691
3,1,Potentiostatic EIS,1052.97,3.48691,-0.0116843,67298.4,0.231572,80.5878,0.0378703,-0.228455,1.58433,0.0431211,0.00998566,1360,0.0202085,3.48691
3,1,Potentiostatic EIS,1054.5,3.48691,-0.0118104,66681.4,0.229352,80.613,0.0374077,-0.226281,1.46803,0.0434584,0.00996728,1360,0.0203955,3.48691
3,1,Potentiostatic EIS,1055,3.48689,-0.0118472,66070.1,0.227273,80.5789,0.0372023,-0.224207,1.52884,0.0438515,0.00996626,1350,0.0204329,3.48689
3,1,Potentiostatic EIS,1055.52,3.48691,-0.0118332,65464.3,0.225345,80.5263,0.0370905,-0.222272,1.52098,0.0442197,0.00996471,1340,0.0204692,3.48691
3,1,Potentiostatic EIS,1056.02,3.4869,-0.0123671,64864.2,0.223593,80.4354,0.0371522,-0.220484,1.36578,0.0446105,0.0099746,1325,0.0204273,3.4869
3,1,Potentiostatic EIS,1056.52,3.48687,-0.012209,64269.5,0.221325,80.3561,0.0370773,-0.218197,1.36131,0.0450911,0.00997983,1315,0.0204607,3.48687
3,1,Potentiostatic EIS,1057.02,3.4869,-0.0120631,63680.3,0.219432,80.3821,0.0366619,-0.216348,1.40526,0.045437,0.00997035,1300,0.0204145,3.4869
3,1,Potentiostatic EIS,1057.53,3.48685,-0.0122914,63096.5,0.217208,80.3461,0.0364247,-0.214132,1.52481,0.0459273,0.00997574,1290,0.0204449,3.48685
3,1,Potentiostatic EIS,1058.03,3.4869,-0.0121422,62518,0.215847,80.3355,0.0362361,-0.212784,1.54294,0.0461851,0.00996893,1280,0.0204741,3.4869
3,1,Potentiostatic EIS,1058.53,3.4869,-0.0115452,61944.8,0.214043,80.2773,0.0361477,-0.210969,1.51058,0.0466599,0.00998728,1265,0.0204214,3.4869
3,1,Potentiostatic EIS,1059.04,3.48691,-0.0117647,61377,0.21247,80.1417,0.0363775,-0.209333,1.48192,0.0469848,0.00998292,1255,0.0204474,3.48691
3,1,Potentiostatic EIS,1059.55,3.48691,-0.0113563,60814.2,0.210823,80.1631,0.0360177,-0.207723,1.62596,0.0472716,0.00996595,1245,0.0204722,3.48691
3,1,Potentiostatic EIS,1060.05,3.48687,-0.01233,60256.7,0.208851,80.006,0.0362451,-0.205682,1.49522,0.047744,0.00997139,1230,0.0204127,3.48687
3,1,Potentiostatic EIS,1060.56,3.48694,-0.0111994,59704.2,0.206883,80.0154,0.0358701,-0.203749,1.50167,0.0480881,0.00994858,1220,0.0204341,3.48694
3,1,Potentiostatic EIS,1061.06,3.48695,-0.0111832,59156.9,0.204987,79.9368,0.0358184,-0.201833,1.56031,0.0485188,0.00994576,1210,0.0204541,3.48695
3,1,Potentiostatic EIS,1061.58,3.4869,-0.0114631,58614.5,0.203902,79.7833,0.0361662,-0.200669,1.50613,0.0487251,0.00993511,1200,0.0204728,3.4869
3,1,Potentiostatic EIS,1062.09,3.48691,-0.0121903,58077.1,0.202064,79.8359,0.0356579,-0.198893,1.68062,0.0492087,0.00994339,1185,0.0204039,3.48691
3,1,Potentiostatic EIS,1062.59,3.48694,-0.0113555,57544.7,0.200379,79.6589,0.0359697,-0.197124,1.61649,0.0495585,0.00993046,1175,0.0204189,3.48694
3,1,Potentiostatic EIS,1063.1,3.48689,-0.0118753,57017.1,0.198477,79.5884,0.0358684,-0.195209,1.43571,0.0499557,0.00991499,1165,0.0204325,3.48689
3,1,Potentiostatic EIS,1063.6,3.48692,-0.0118421,56494.4,0.19703,79.6006,0.0355658,-0.193794,1.43973,0.0503644,0.00992326,1155,0.0204445,3.48692
3,1,Potentiostatic EIS,1064.11,3.48685,-0.0121435,55976.4,0.195209,79.5549,0.03539,-0.191975,1.43368,0.0507088,0.00989879,1145,0.020455,3.48685
3,1,Potentiostatic EIS,1064.61,3.48691,-0.0115596,55463.2,0.193711,79.4832,0.0353568,-0.190457,1.45836,0.0511645,0.0099111,1135,0.020464,3.48691
3,1,Potentiostatic EIS,1065.12,3.48692,-0.0122986,54954.7,0.19192,79.4346,0.0351901,-0.188666,1.45239,0.0516164,0.00990627,1125,0.0204714,3.48692
3,1,Potentiostatic EIS,1065.63,3.48691,-0.0123158,54450.9,0.190103,79.3303,0.0351971,-0.186816,1.4028,0.0520583,0.00989627,1115,0.0204772,3.48691
3,1,Potentiostatic EIS,1066.13,3.48691,-0.0124096,53951.7,0.188672,79.2972,0.0350391,-0.18539,1.52233,0.0524281,0.00989158,1100,0.0203886,3.48691
3,1,Potentiostatic EIS,1066.64,3.48688,-0.0121049,53457.1,0.186462,79.2842,0.0346705,-0.183211,1.40437,0.0529381,0.00987091,1090,0.0203902,3.48688
3,1,Potentiostatic EIS,1067.15,3.48687,-0.0118271,52967,0.185354,79.0942,0.035068,-0.182007,1.55391,0.0533107,0.00988149,1080,0.02039,3.48687
3,1,Potentiostatic EIS,1067.66,3.48682,-0.0125402,52481.4,0.183776,79.0136,0.0350234,-0.180408,1.53441,0.0536673,0.00986293,1070,0.0203882,3.48682
3,1,Potentiostatic EIS,1068.17,3.48688,-0.0125666,52000.2,0.18218,79.013,0.0347211,-0.178841,1.66358,0.0541209,0.00986011,1060,0.0203845,3.48688
3,1,Potentiostatic EIS,1068.67,3.48689,-0.0121639,51523.5,0.180581,78.9835,0.0345075,-0.177253,1.45058,0.0545462,0.00984999,1055,0.0204761,3.48689
3,1,Potentiostatic EIS,1069.19,3.48689,-0.0123014,51051.1,0.178797,78.9562,0.0342503,-0.175486,1.64763,0.0550816,0.00984876,1045,0.0204697,3.48689
3,1,Potentiostatic EIS,1069.7,3.48688,-0.0121052,50583.1,0.177438,78.8384,0.034348,-0.174082,1.46786,0.0555803,0.00986251,1035,0.0204614,3.48688
3,1,Potentiostatic EIS,1070.21,3.48686,-0.0122307,50119.3,0.175633,79.1785,0.0329752,-0.17251,1.58669,0.0558795,0.00981321,1025,0.0204512,3.48686
3,1,Potentiostatic EIS,1070.47,3.48689,-0.0119004,50000,0.176116,79.0933,0.0333228,-0.172934,1.45317,0.0561445,0.00989365,1020,0.0204,3.48689