File: Data/P190_04/EIS_04_P190_04_5/2_EIS_04_P190_04_5 20231005 161016.csv
Step number,Repeats,Step name,Elapsed Time  (s),DC Working Electrode (V),DC Current (A),Frequency (Hz),|Z| (Ohms),Phase (deg),Z' (Ohms),-Z" (Ohms),THD (%),Amplitude (A),Amplitude (V),No of Cycles,Duration of Each Frequency (s),IR Compensated DC Working Electrode (V)
2,1,Potentiostatic EIS,60.3005,3.50556,-0.0157244,1000000,1.91097,86.3926,0.120237,-1.90718,1.6971,0.00524281,0.010019,1430,0.00143,3.50556
2,1,Potentiostatic EIS,60.5509,3.50552,-0.0172603,891251,1.7174,85.9787,0.120438,-1.71317,1.40183,0.00579201,0.00994762,1310,0.00146984,3.50552
2,1,Potentiostatic EIS,60.8035,3.5055,-0.0183143,794328,1.54142,85.7519,0.11418,-1.53718,1.81783,0.00649438,0.0100109,1445,0.00181915,3.5055
2,1,Potentiostatic EIS,61.0554,3.50548,-0.0189602,707946,1.38065,85.7636,0.101991,-1.37688,1.50092,0.0072561,0.0100181,1340,0.0018928,3.50548
2,1,Potentiostatic EIS,61.3198,3.50544,-0.0200456,630957.25,1.23392,85.1858,0.103556,-1.22957,1.73336,0.00808952,0.00998168,1355,0.00214753,3.50544
2,1,Potentiostatic EIS,61.5855,3.50539,-0.0207883,562341.25,1.10428,85.1607,0.0931588,-1.10035,1.3796,0.00902312,0.00996408,1360,0.00241846,3.50539
2,1,Potentiostatic EIS,61.8499,3.50535,-0.0220296,501187,0.989602,85.1378,0.0838784,-0.986041,1.72332,0.0100183,0.00991471,1385,0.00276344,3.50535
2,1,Potentiostatic EIS,62.1266,3.50532,-0.0231168,446684,0.886661,84.7392,0.0812969,-0.882926,1.63327,0.0109943,0.00974754,1360,0.00304466,3.50532
2,1,Potentiostatic EIS,62.4326,3.5053,-0.0240488,398107,0.796246,84.1891,0.0806165,-0.792154,1.80056,0.012537,0.0099826,1400,0.00351664,3.5053
2,1,Potentiostatic EIS,62.7533,3.50525,-0.0247914,354813,0.712777,84.1664,0.0724471,-0.709086,1.85093,0.0139281,0.00992772,1365,0.00384709,3.50525
2,1,Potentiostatic EIS,63.0925,3.50519,-0.0261356,316228,0.638005,83.6705,0.0703375,-0.634116,1.85422,0.0155886,0.00994575,1370,0.00433232,3.50519
2,1,Potentiostatic EIS,63.4423,3.50517,-0.0270002,281838.25,0.572491,83.2481,0.0673077,-0.568521,1.93658,0.0173483,0.00993184,1370,0.00486094,3.50517
2,1,Potentiostatic EIS,63.8104,3.50512,-0.0279057,251189,0.515405,82.8473,0.0641753,-0.511394,1.85872,0.019309,0.00995205,1340,0.00533464,3.50512
2,1,Potentiostatic EIS,64.3662,3.50509,-0.028673,223872,0.463032,82.5372,0.0601396,-0.45911,1.89661,0.0215275,0.00996803,1360,0.0060749,3.50509
2,1,Potentiostatic EIS,64.7783,3.50505,-0.0298988,199526,0.41497,82.2091,0.0562527,-0.41114,2.22826,0.0239886,0.00995461,1355,0.00679109,3.50505
2,1,Potentiostatic EIS,65.2188,3.50499,-0.0316054,177828,0.374285,81.6692,0.0542294,-0.370335,2.01047,0.026496,0.00991705,1355,0.00761973,3.50499
2,1,Potentiostatic EIS,65.6852,3.50493,-0.0326921,158489,0.334769,81.2878,0.0507082,-0.330907,2.14077,0.0291407,0.00975577,1360,0.00858103,3.50493
2,1,Potentiostatic EIS,66.2263,3.50489,-0.0343965,141254,0.302396,81.0243,0.0471785,-0.298693,2.2474,0.0330119,0.00998273,1355,0.00959267,3.50489
2,1,Potentiostatic EIS,66.8052,3.50485,-0.03523,125892,0.272341,80.3001,0.0458862,-0.268448,2.1146,0.0366048,0.00996905,1370,0.0108823,3.50485
2,1,Potentiostatic EIS,67.4297,3.5048,-0.0367489,112202,0.2447,79.7508,0.0435393,-0.240795,1.98968,0.0408005,0.00998398,1360,0.012121,3.5048
2,1,Potentiostatic EIS,67.998,3.50477,-0.0370475,99999.9,0.220127,79.3244,0.0407782,-0.216317,2.7507,0.0438607,0.00965438,1370,0.0137,3.50477
2,1,Potentiostatic EIS,68.6732,3.50471,-0.0390476,89125.1,0.198155,78.6615,0.0389584,-0.194288,2.18029,0.0503158,0.00997037,1365,0.0153156,3.50471
2,1,Potentiostatic EIS,69.7085,3.50464,-0.0400693,79432.8,0.178393,77.9956,0.0371033,-0.174492,2.67656,0.0560332,0.00999607,1365,0.0171843,3.50464
2,1,Potentiostatic EIS,70.9088,3.50523,-0.0200971,70794.5,0.160477,77.1574,0.0356699,-0.156462,3.78915,0.0620825,0.00996287,1370,0.0193518,3.50523
2,1,Potentiostatic EIS,71.1232,3.50509,-0.0206489,63095.7,0.144491,76.7036,0.0332314,-0.140618,3.82424,0.0691903,0.00999756,1290,0.0204451,3.50509
2,1,Potentiostatic EIS,71.3476,3.50517,-0.021322,56234.1,0.130839,75.8564,0.0319709,-0.126873,4.04155,0.0768811,0.010059,1150,0.0204502,3.50517
2,1,Potentiostatic EIS,71.5664,3.50524,-0.0207155,50118.7,0.118101,74.2945,0.0319692,-0.113692,4.3901,0.0836288,0.00987929,1025,0.0204515,3.50524
2,1,Potentiostatic EIS,71.7875,3.50525,-0.0209115,44668.3,0.106191,73.4777,0.0301995,-0.101806,4.92083,0.0942991,0.0100134,910,0.0203724,3.50525
2,1,Potentiostatic EIS,72.0116,3.50521,-0.0207709,39810.7,0.0958595,72.8751,0.0282263,-0.0916096,4.91008,0.1046,0.0100274,815,0.0204719,3.50521
2,1,Potentiostatic EIS,72.2321,3.5052,-0.0211462,35481.3,0.0868024,71.6438,0.0273362,-0.0823856,5.27979,0.115586,0.0100336,725,0.0204333,3.5052
2,1,Potentiostatic EIS,72.4524,3.50519,-0.0208864,31622.8,0.0790963,70.1295,0.0268845,-0.0743872,5.63036,0.127441,0.0100801,645,0.0203967,3.50519
2,1,Potentiostatic EIS,72.6731,3.50515,-0.0203239,28183.8,0.0711663,68.9777,0.0255295,-0.0664295,5.90689,0.140643,0.0100087,575,0.0204018,3.50515
2,1,Potentiostatic EIS,72.8968,3.50557,-0.00946425,25118.8,0.0652668,67.3557,0.0251283,-0.0602355,6.35241,0.155104,0.010123,510,0.0203035,3.50557
2,1,Potentiostatic EIS,73.1207,3.50551,-0.00845279,22387.2,0.0586409,65.5932,0.0242311,-0.0534004,6.60062,0.171336,0.0100471,455,0.0203241,3.50551
2,1,Potentiostatic EIS,73.3417,3.50561,-0.00815332,19952.6,0.053948,63.6105,0.0239783,-0.0483263,6.5369,0.18772,0.0101272,405,0.0202981,3.50561
2,1,Potentiostatic EIS,73.5617,3.50562,-0.00769858,17782.8,0.0491034,61.7793,0.0232195,-0.0432666,6.73406,0.204857,0.0100594,360,0.0202443,3.50562
2,1,Potentiostatic EIS,73.7841,3.50561,-0.00675998,15848.9,0.0450455,59.6673,0.0227489,-0.0388791,6.6793,0.222647,0.0100296,320,0.0201906,3.50561
2,1,Potentiostatic EIS,74.0066,3.50565,-0.00625875,14125.4,0.0416069,57.1992,0.0225393,-0.034973,6.76805,0.242004,0.0100685,285,0.0201765,3.50565
2,1,Potentiostatic EIS,74.2528,3.50566,-0.00617408,12589.2,0.0382088,55.0388,0.0218945,-0.0313137,6.79472,0.260564,0.00995589,255,0.0202554,3.50566
2,1,Potentiostatic EIS,74.481,3.50575,-0.00612433,11220.2,0.0356077,52.077,0.0218846,-0.0280886,6.54754,0.281533,0.0100246,225,0.0200532,3.50575
2,1,Potentiostatic EIS,74.8329,3.50586,-0.00515382,9999.98,0.0331426,49.9272,0.0213359,-0.0253616,3.00317,0.301764,0.0100012,307,0.0307001,3.50586
2,1,Potentiostatic EIS,75.0884,3.50588,-0.00512118,8912.5,0.0310748,47.5002,0.0209937,-0.0229108,3.28702,0.32849,0.0102077,273,0.0306311,3.50588
2,1,Potentiostatic EIS,75.3432,3.50588,-0.00497489,7943.27,0.0290907,45.3627,0.0204396,-0.0207,3.5951,0.348182,0.0101289,244,0.0307178,3.50588
2,1,Potentiostatic EIS,75.5551,3.50591,-0.00409393,7079.45,0.0268864,42.9948,0.0196651,-0.0183347,4.02012,0.3283,0.00882679,217,0.0306521,3.50591
2,1,Potentiostatic EIS,75.7652,3.50591,-0.00388612,6309.57,0.0249978,38.8317,0.019473,-0.0156745,4.20599,0.372939,0.00932263,193,0.0305885,3.50591
2,1,Potentiostatic EIS,75.9775,3.5059,-0.00439592,5623.41,0.0239477,34.8187,0.0196602,-0.0136737,4.1674,0.423086,0.0101319,172,0.0305864,3.5059
2,1,Potentiostatic EIS,76.1884,3.50591,-0.0044065,5011.87,0.0231908,31.3922,0.0197962,-0.0120799,4.1067,0.452197,0.0104868,153,0.0305276,3.50591
2,1,Potentiostatic EIS,76.4001,3.50592,-0.00382375,4466.83,0.0225292,28.2248,0.0198504,-0.0106548,4.0634,0.460799,0.0103814,137,0.0306705,3.50592
2,1,Potentiostatic EIS,76.6125,3.50595,-0.00274236,3981.07,0.0219878,25.308,0.0198775,-0.00939945,3.97061,0.468431,0.0102998,122,0.0306451,3.50595
2,1,Potentiostatic EIS,76.8249,3.50597,-0.00256398,3548.13,0.0215133,22.5639,0.0198665,-0.00825496,3.83491,0.474789,0.0102143,108,0.0304386,3.50597
2,1,Potentiostatic EIS,77.0365,3.50596,-0.00228421,3162.27,0.0211652,19.9753,0.0198919,-0.00723037,3.68862,0.479435,0.0101473,97,0.0306742,3.50596
2,1,Potentiostatic EIS,77.2051,3.50599,-0.00168829,2818.38,0.020873,17.501,0.0199068,-0.00627697,3.70542,0.420304,0.00877298,86,0.030514,3.50599
2,1,Potentiostatic EIS,77.3738,3.50598,-0.00205903,2511.88,0.0206463,15.229,0.0199213,-0.00542334,3.39815,0.472483,0.00975503,77,0.0306543,3.50598
2,1,Potentiostatic EIS,77.5417,3.50596,-0.00280595,2238.72,0.0204986,13.0555,0.0199688,-0.00463054,3.18136,0.509547,0.010445,68,0.0303745,3.50596
2,1,Potentiostatic EIS,77.7081,3.50599,-0.00229773,1995.26,0.0203823,11.086,0.0200019,-0.00391916,3.00214,0.50758,0.0103456,61,0.0305725,3.50599
2,1,Potentiostatic EIS,77.8749,3.50602,-0.000987502,1778.28,0.0203261,9.22679,0.0200631,-0.00325915,2.87217,0.504177,0.010248,54,0.0303664,3.50602
2,1,Potentiostatic EIS,78.0422,3.50602,-0.000801521,1584.89,0.0203337,7.52092,0.0201588,-0.00266144,2.75034,0.500502,0.0101771,48,0.030286,3.50602
2,1,Potentiostatic EIS,78.2091,3.50603,-0.00102622,1412.53,0.0203531,5.97941,0.0202424,-0.00212021,2.57812,0.49692,0.0101139,43,0.0304417,3.50603
2,1,Potentiostatic EIS,78.3316,3.50602,-0.00127974,1258.92,0.0204014,4.60533,0.0203355,-0.00163806,2.59472,0.419384,0.008556,38,0.0301845,3.50602
2,1,Potentiostatic EIS,78.4544,3.50604,-0.000832811,1122.02,0.0204759,3.27796,0.0204424,-0.00117081,2.38501,0.464863,0.0095185,34,0.0303026,3.50604
2,1,Potentiostatic EIS,78.5772,3.50602,-0.00106128,999.999,0.02059,2.13621,0.0205756,-0.000767496,2.2369,0.502038,0.0103369,30,0.03,3.50602
2,1,Potentiostatic EIS,78.7002,3.50604,-0.000459872,891.25,0.020713,1.08804,0.0207092,-0.000393314,2.23611,0.494967,0.0102522,27,0.0302945,3.50604
2,1,Potentiostatic EIS,78.8232,3.50605,-0.000382133,794.328,0.0208659,0.125174,0.0208659,-4.55856e-05,2.10385,0.488924,0.0102018,24,0.0302142,3.50605
2,1,Potentiostatic EIS,78.9454,3.50606,-0.00027769,707.945,0.0210196,-0.775744,0.0210177,0.000284582,2.07357,0.482882,0.01015,21,0.0296633,3.50606
2,1,Potentiostatic EIS,79.0676,3.50605,-0.000176355,630.956,0.0211883,-1.50119,0.021181,0.000555083,2.04622,0.476263,0.0100912,19,0.030113,3.50605
2,1,Potentiostatic EIS,79.1907,3.50604,-0.000649682,562.34,0.0213615,-2.24482,0.0213451,0.000836716,2.00477,0.471606,0.0100742,17,0.0302308,3.50604
2,1,Potentiostatic EIS,79.3137,3.50604,-0.00062377,501.185,0.0215677,-2.87519,0.0215406,0.00108185,1.98165,0.466177,0.0100544,15,0.029929,3.50604
2,1,Potentiostatic EIS,79.4368,3.50605,-0.000525674,446.683,0.0217806,-3.45061,0.0217411,0.00131093,1.92676,0.460722,0.0100348,13,0.0291034,3.50605
2,1,Potentiostatic EIS,79.5163,3.50606,-0.000206248,398.107,0.0219852,-3.93121,0.0219334,0.00150728,1.95709,0.3861,0.00848848,12,0.0301427,3.50606
2,1,Potentiostatic EIS,79.5952,3.50606,0.000121797,354.813,0.0222178,-4.3682,0.0221533,0.00169223,1.87849,0.396175,0.00880213,10,0.0281839,3.50606
2,1,Potentiostatic EIS,79.6735,3.50606,-0.000158783,316.227,0.0224582,-4.7773,0.0223802,0.00187039,1.81141,0.403319,0.00905783,9,0.0284606,3.50606
2,1,Potentiostatic EIS,79.7531,3.50606,-4.85897e-05,281.838,0.0226984,-5.10987,0.0226082,0.00202165,1.73422,0.408037,0.00926176,8,0.0283851,3.50606
2,1,Potentiostatic EIS,79.8335,3.50606,0.000103967,251.188,0.0229551,-5.3919,0.0228535,0.00215703,1.64603,0.410621,0.00942583,8,0.0318487,3.50606
2,1,Potentiostatic EIS,79.9176,3.50606,-4.18943e-05,223.872,0.0231981,-5.57545,0.0230884,0.00225385,1.51989,0.411528,0.00954667,8,0.0357347,3.50606
2,1,Potentiostatic EIS,80.006,3.50607,-1.51199e-05,199.526,0.0234583,-5.78639,0.0233387,0.00236506,1.48363,0.410974,0.00964073,8,0.0400951,3.50607
2,1,Potentiostatic EIS,80.0998,3.50606,-0.000293598,177.828,0.0237297,-5.89866,0.0236041,0.00243869,1.35924,0.409587,0.00971939,8,0.0449874,3.50606
2,1,Potentiostatic EIS,80.1991,3.50606,-0.000469665,158.489,0.0239784,-5.98963,0.0238475,0.00250211,1.2824,0.407405,0.00976892,8,0.0504767,3.50606
2,1,Potentiostatic EIS,80.3043,3.50605,-0.000607058,141.253,0.0242382,-6.05087,0.0241031,0.00255498,1.18206,0.404675,0.00980857,8,0.0566359,3.50605
2,1,Potentiostatic EIS,80.4172,3.50605,-0.000509597,125.892,0.0244895,-6.0299,0.024354,0.00257256,1.10398,0.401422,0.00983065,8,0.0635464,3.50605
2,1,Potentiostatic EIS,80.5368,3.50605,-0.000568891,112.201,0.0247522,-6.02798,0.0246153,0.00259933,1.0152,0.398267,0.00985798,8,0.0713003,3.50605
2,1,Potentiostatic EIS,80.6647,3.50605,-7.7894e-05,99.9997,0.0249943,-5.96876,0.0248588,0.00259906,0.916455,0.394694,0.0098651,8,0.0800003,3.50605
2,1,Potentiostatic EIS,80.804,3.50605,-0.000109178,89.1248,0.0252541,-5.90174,0.0251202,0.0025967,0.875759,0.391141,0.00987791,8,0.0897617,3.50605
2,1,Potentiostatic EIS,80.955,3.50605,-0.000348018,79.4325,0.0254814,-5.74403,0.0253535,0.00255029,0.763178,0.387612,0.00987689,8,0.100714,3.50605
2,1,Potentiostatic EIS,81.1228,3.50605,-0.00044054,70.7943,0.0257136,-5.62007,0.02559,0.00251817,0.725279,0.384416,0.00988472,8,0.113003,3.50605
2,1,Potentiostatic EIS,81.3023,3.50604,-0.000614699,63.0956,0.025927,-5.45778,0.0258095,0.00246598,0.645191,0.381176,0.00988275,8,0.126792,3.50604
2,1,Potentiostatic EIS,81.4972,3.50606,-0.000142895,56.2341,0.0261368,-5.34952,0.0260229,0.00243676,0.565001,0.368764,0.00963829,8,0.142263,3.50606
2,1,Potentiostatic EIS,81.7101,3.50606,-4.02607e-05,50.1186,0.0263513,-5.14648,0.0262451,0.00236377,0.515926,0.367018,0.00967141,8,0.159621,3.50606
2,1,Potentiostatic EIS,81.9449,3.50607,-0.000157155,44.6682,0.0265381,-4.93152,0.0264399,0.00228135,0.474977,0.365301,0.00969442,8,0.179098,3.50607
2,1,Potentiostatic EIS,82.2029,3.50604,-0.000634059,39.8106,0.0267196,-4.7575,0.0266275,0.00221608,0.436,0.363474,0.00971188,8,0.200952,3.50604
2,1,Potentiostatic EIS,82.4878,3.50606,-1.93507e-05,35.4812,0.0268832,-4.52666,0.0267993,0.0021217,0.42558,0.362049,0.00973302,8,0.225471,3.50606
2,1,Potentiostatic EIS,82.6301,3.50606,-0.000703891,31.6227,0.0270575,-4.33037,0.0269802,0.00204304,0.387327,0.364891,0.00987308,2,0.0632458,3.50606
2,1,Potentiostatic EIS,82.7759,3.50606,-0.000301705,28.1838,0.0271986,-4.12698,0.0271281,0.0019574,0.358747,0.363609,0.0098896,2,0.0709628,3.50606
2,1,Potentiostatic EIS,82.9377,3.50604,-0.000565998,25.1188,0.0273385,-3.91911,0.0272745,0.00186853,0.346658,0.352245,0.00962994,2,0.0796217,3.50604
2,1,Potentiostatic EIS,83.1175,3.50605,-0.000437812,22.3871,0.0274789,-3.73433,0.0274206,0.00178971,0.359377,0.352499,0.00968617,2,0.0893371,3.50605
2,1,Potentiostatic EIS,83.3167,3.50606,-0.000512151,19.9525,0.0275781,-3.51877,0.0275261,0.00169262,0.351298,0.352846,0.00973079,2,0.100238,3.50606
2,1,Potentiostatic EIS,83.5392,3.50605,-0.000843169,17.7828,0.0276934,-3.35457,0.0276459,0.00162047,0.330697,0.353186,0.00978092,2,0.112468,3.50605
2,1,Potentiostatic EIS,83.7866,3.50607,-0.000218802,15.8489,0.027799,-3.16913,0.0277565,0.00153683,0.310442,0.352645,0.00980318,2,0.126192,3.50607
2,1,Potentiostatic EIS,84.0621,3.50607,-0.00033992,14.1253,0.0278864,-2.99366,0.0278484,0.00145638,0.340919,0.352287,0.00982401,2,0.14159,3.50607
2,1,Potentiostatic EIS,84.369,3.50605,-0.000626201,12.5892,0.0279827,-2.82439,0.0279487,0.00137884,0.333319,0.352104,0.00985284,2,0.158866,3.50605
2,1,Potentiostatic EIS,84.7113,3.50605,-0.000589164,11.2201,0.0280541,-2.66488,0.0280237,0.00130435,0.316466,0.351717,0.00986715,2,0.178251,3.50605
2,1,Potentiostatic EIS,85.0935,3.50605,-0.00062933,9.99996,0.028112,-2.5472,0.0280842,0.00124937,0.323098,0.3515,0.00988139,2,0.200001,3.50605
2,1,Potentiostatic EIS,85.5199,3.50604,-0.00126586,8.91248,0.0281894,-2.39446,0.0281647,0.00117773,0.305706,0.350844,0.00989007,2,0.224404,3.50604
2,1,Potentiostatic EIS,85.9958,3.50605,-0.000980552,7.94325,0.0282511,-2.30256,0.0282283,0.00113503,0.31163,0.350607,0.00990503,2,0.251786,3.50605
2,1,Potentiostatic EIS,86.5285,3.50605,-0.00134139,7.07944,0.028297,-2.17511,0.0282766,0.00107398,0.313819,0.350079,0.00990622,2,0.282508,3.50605
2,1,Potentiostatic EIS,87.1239,3.50606,-0.000842908,6.30955,0.0283502,-2.08624,0.0283315,0.00103205,0.308644,0.349612,0.00991157,2,0.31698,3.50606
2,1,Potentiostatic EIS,87.7897,3.50606,-0.00121608,5.62339,0.0284183,-2.01129,0.0284008,0.000997383,0.312481,0.348946,0.00991649,2,0.355657,3.50606
2,1,Potentiostatic EIS,88.5353,3.50606,-0.00128477,5.01185,0.0284562,-1.93727,0.02844,0.00096197,0.298372,0.348524,0.00991766,2,0.399054,3.50606
2,1,Potentiostatic EIS,89.3691,3.50606,-0.00118164,4.46682,0.0285071,-1.88344,0.0284917,0.000936924,0.310857,0.347873,0.00991685,2,0.447745,3.50606
2,1,Potentiostatic EIS,90.3006,3.50606,-0.0012254,3.98106,0.0285499,-1.81771,0.0285356,0.000905593,0.323363,0.34756,0.0099228,2,0.502378,3.50606
2,1,Potentiostatic EIS,91.3435,3.50606,-0.00165208,3.54812,0.028617,-1.82102,0.0286025,0.000909377,0.291915,0.347043,0.00993137,2,0.563679,3.50606
2,1,Potentiostatic EIS,92.5101,3.50606,-0.00188036,3.16227,0.0286179,-1.75125,0.0286046,0.000874575,0.246978,0.346851,0.00992615,2,0.632458,3.50606
2,1,Potentiostatic EIS,93.8151,3.50606,-0.00168183,2.81837,0.0286679,-1.72953,0.0286548,0.000865239,0.253216,0.346411,0.00993087,2,0.70963,3.50606
2,1,Potentiostatic EIS,95.2774,3.50606,-0.00184715,2.51188,0.0287135,-1.71382,0.0287007,0.000858746,0.267973,0.345656,0.00992501,2,0.796217,3.50606
2,1,Potentiostatic EIS,96.9184,3.50606,-0.00161817,2.23872,0.0287438,-1.69469,0.0287312,0.00085006,0.261379,0.345507,0.00993115,2,0.893369,3.50606
2,1,Potentiostatic EIS,98.7559,3.50606,-0.00173337,1.99526,0.0288014,-1.70793,0.0287886,0.000858417,0.252201,0.344657,0.00992662,2,1.00238,3.50606
2,1,Potentiostatic EIS,100.817,3.50605,-0.00167415,1.77827,0.0288334,-1.71357,0.0288206,0.000862205,0.269653,0.344519,0.00993368,2,1.12469,3.50605
2,1,Potentiostatic EIS,103.127,3.50605,-0.00178278,1.58489,0.0288726,-1.70541,0.0288598,0.000859264,0.260903,0.343954,0.00993086,2,1.26192,3.50605
2,1,Potentiostatic EIS,105.716,3.50605,-0.0018114,1.41253,0.0289355,-1.70928,0.0289226,0.000863091,0.273925,0.343365,0.00993543,2,1.4159,3.50605
2,1,Potentiostatic EIS,108.62,3.50605,-0.00209212,1.25892,0.0289705,-1.76293,0.0289568,0.00089125,0.256164,0.342773,0.00993031,2,1.58866,3.50605
2,1,Potentiostatic EIS,111.876,3.50606,-0.00199116,1.12202,0.0290145,-1.80902,0.0290001,0.000915933,0.245725,0.342523,0.00993815,2,1.78251,3.50606
2,1,Potentiostatic EIS,115.528,3.50605,-0.00191689,0.999995,0.0290458,-1.83412,0.0290309,0.000929637,0.254667,0.342015,0.00993408,2,2.00001,3.50605
2,1,Potentiostatic EIS,119.623,3.50606,-0.00209997,0.891248,0.0291002,-1.87223,0.0290847,0.000950725,0.256896,0.34141,0.00993507,2,2.24404,3.50606
2,1,Potentiostatic EIS,124.218,3.50606,-0.00171372,0.794324,0.0291576,-1.95469,0.0291407,0.000994543,0.269073,0.340802,0.00993697,2,2.51786,3.50606
2,1,Potentiostatic EIS,129.372,3.50606,-0.00176273,0.707944,0.0291945,-2.02829,0.0291762,0.00103328,0.289407,0.340285,0.00993444,2,2.82508,3.50606
2,1,Potentiostatic EIS,135.152,3.50606,-0.00196848,0.630955,0.0292406,-2.11012,0.0292208,0.00107664,0.280587,0.339791,0.0099357,2,3.1698,3.50606
2,1,Potentiostatic EIS,141.638,3.50605,-0.00158913,0.562339,0.0293115,-2.19211,0.02929,0.00112117,0.253718,0.33896,0.0099354,2,3.55657,3.50605
2,1,Potentiostatic EIS,148.912,3.50606,-0.00142192,0.501186,0.0293588,-2.30054,0.0293351,0.0011785,0.285382,0.338322,0.00993271,2,3.99054,3.50606
2,1,Potentiostatic EIS,157.072,3.50606,-0.00175236,0.446681,0.0294168,-2.41222,0.0293908,0.00123811,0.265716,0.337644,0.00993243,2,4.47747,3.50606
2,1,Potentiostatic EIS,166.226,3.50607,-0.00127169,0.398106,0.0294937,-2.51608,0.0294652,0.00129477,0.243075,0.336973,0.00993857,2,5.02379,3.50607
2,1,Potentiostatic EIS,176.496,3.50607,-0.0014725,0.354812,0.0295581,-2.64968,0.0295265,0.00136645,0.266975,0.336181,0.00993688,2,5.63679,3.50607
2,1,Potentiostatic EIS,188.012,3.50607,-0.00141571,0.316226,0.0296313,-2.78466,0.0295963,0.00143956,0.278868,0.335477,0.00994062,2,6.32458,3.50607
2,1,Potentiostatic EIS,200.933,3.50607,-0.000820513,0.281837,0.0297096,-2.91926,0.029671,0.00151307,0.250868,0.334448,0.00993632,2,7.09631,3.50607
2,1,Potentiostatic EIS,215.427,3.50607,-0.00111843,0.251188,0.0297874,-3.07562,0.0297445,0.00159821,0.243251,0.333554,0.00993571,2,7.96218,3.50607
2,1,Potentiostatic EIS,231.69,3.50607,-0.00110133,0.223871,0.0298741,-3.26302,0.0298257,0.00170042,0.258674,0.332689,0.0099388,2,8.9337,3.50607
2,1,Potentiostatic EIS,249.934,3.50608,-0.000549631,0.199525,0.0299621,-3.43039,0.0299084,0.00179281,0.257411,0.331694,0.00993824,2,10.0238,3.50608
2,1,Potentiostatic EIS,270.4,3.50607,-0.00129388,0.177827,0.030063,-3.62794,0.0300028,0.00190231,0.247211,0.330668,0.00994085,2,11.2469,3.50607
2,1,Potentiostatic EIS,293.371,3.50607,-0.000805623,0.158489,0.0301691,-3.84196,0.0301013,0.00202147,0.258775,0.32955,0.00994221,2,12.6192,3.50607
2,1,Potentiostatic EIS,319.136,3.50606,-0.000446229,0.141253,0.030289,-4.03623,0.0302139,0.00213196,0.263312,0.328014,0.00993519,2,14.159,3.50606
2,1,Potentiostatic EIS,348.049,3.50606,-0.00115191,0.125892,0.0303954,-4.28705,0.0303104,0.00227216,0.251811,0.326828,0.00993404,2,15.8867,3.50606
2,1,Potentiostatic EIS,380.482,3.50606,-0.000509759,0.112201,0.0305289,-4.53309,0.0304334,0.00241284,0.24361,0.3258,0.00994636,2,17.8251,3.50606
2,1,Potentiostatic EIS,416.874,3.50606,-0.000462988,0.0999997,0.0306523,-4.83165,0.0305434,0.00258179,0.248948,0.324412,0.00994401,2,20.0001,3.50606
2,1,Potentiostatic EIS,457.702,3.50607,-0.000969405,0.0891246,0.030791,-5.17066,0.0306657,0.00277497,0.25599,0.322848,0.00994085,2,22.4405,3.50607
2,1,Potentiostatic EIS,503.502,3.50607,-7.7294e-05,0.0794325,0.0309491,-5.44197,0.0308096,0.00293514,0.251123,0.32121,0.00994111,2,25.1786,3.50607
2,1,Potentiostatic EIS,554.902,3.50607,-0.000709126,0.0707942,0.0311184,-5.84221,0.0309568,0.00316752,0.228182,0.319574,0.00994466,2,28.2509,3.50607
2,1,Potentiostatic EIS,612.559,3.50607,-0.000734218,0.0630955,0.0313063,-6.18424,0.0311241,0.0033725,0.271365,0.317476,0.00993901,2,31.698,3.50607
2,1,Potentiostatic EIS,677.248,3.50607,0.000173799,0.0562339,0.0315012,-6.59642,0.0312927,0.0036187,0.243169,0.315513,0.00993906,2,35.5657,3.50607
2,1,Potentiostatic EIS,749.83,3.50606,-0.000787279,0.0501185,0.0317081,-7.074,0.0314667,0.00390489,0.220097,0.313735,0.00994793,2,39.9054,3.50606
2,1,Potentiostatic EIS,822.582,3.50606,-0.0002279,0.05,0.0317038,-7.06798,0.0314629,0.00390105,0.26631,0.313424,0.00993672,2,40,3.50606