File: Data/P190/P190_04/EIS_04_P190_04_4/2_EIS_04_P190_04_4 20231005 153931.csv
Step number,Repeats,Step name,Elapsed Time  (s),DC Working Electrode (V),DC Current (A),Frequency (Hz),|Z| (Ohms),Phase (deg),Z' (Ohms),-Z" (Ohms),THD (%),Amplitude (A),Amplitude (V),No of Cycles,Duration of Each Frequency (s),IR Compensated DC Working Electrode (V)
2,1,Potentiostatic EIS,60.2986,3.50978,-0.0140937,1000000,1.28331,83.7155,0.140478,-1.2756,1.95646,0.00781484,0.0100288,1430,0.00143,3.50978
2,1,Potentiostatic EIS,60.5415,3.50968,-0.0167279,891251,1.16122,83.5309,0.130831,-1.15383,2.04961,0.00842309,0.0097823,1310,0.00146984,3.50968
2,1,Potentiostatic EIS,60.7868,3.50965,-0.0176997,794328,1.04481,83.4159,0.1198,-1.03792,2.2295,0.00930483,0.00972193,1445,0.00181915,3.50965
2,1,Potentiostatic EIS,61.0648,3.50957,-0.0193298,707946,0.935634,83.545,0.105187,-0.929702,1.96457,0.0107148,0.0100255,1340,0.0018928,3.50957
2,1,Potentiostatic EIS,61.3449,3.50954,-0.0210676,630957.25,0.838874,82.7044,0.106527,-0.832083,2.28912,0.0119275,0.0100056,1355,0.00214753,3.50954
2,1,Potentiostatic EIS,61.6292,3.5095,-0.0219039,562341.25,0.753065,82.6217,0.0967086,-0.74683,2.14021,0.0132589,0.00998474,1360,0.00241846,3.5095
2,1,Potentiostatic EIS,61.9216,3.50945,-0.0233039,501187,0.677879,82.5422,0.0879857,-0.672144,2.37567,0.014761,0.0100063,1385,0.00276344,3.50945
2,1,Potentiostatic EIS,62.2172,3.50937,-0.0251998,446684,0.608664,81.8556,0.086228,-0.602525,2.5707,0.0163492,0.00995126,1360,0.00304466,3.50937
2,1,Potentiostatic EIS,62.5233,3.50931,-0.0262895,398107,0.548295,81.3914,0.0820708,-0.542118,2.25214,0.0182648,0.0100145,1400,0.00351664,3.50931
2,1,Potentiostatic EIS,62.972,3.50929,-0.0268854,354813,0.49062,81.0642,0.0762068,-0.484665,2.73784,0.0203194,0.00996918,1365,0.00384709,3.50929
2,1,Potentiostatic EIS,63.3055,3.50921,-0.028467,316228,0.441137,81.0193,0.0688626,-0.435729,2.45776,0.0226049,0.00997202,1370,0.00433232,3.50921
2,1,Potentiostatic EIS,63.6556,3.50916,-0.0298327,281838.25,0.399317,80.1356,0.0684097,-0.393414,2.52672,0.0246682,0.00985122,1370,0.00486094,3.50916
2,1,Potentiostatic EIS,64.0242,3.50914,-0.0310376,251189,0.357936,79.6272,0.0644472,-0.352086,2.49543,0.0271604,0.00971979,1340,0.00533464,3.50914
2,1,Potentiostatic EIS,64.445,3.50902,-0.0336489,223872,0.322565,79.1182,0.0608947,-0.316765,2.56177,0.031034,0.0100105,1360,0.0060749,3.50902
2,1,Potentiostatic EIS,64.8906,3.509,-0.0347215,199526,0.287948,78.5968,0.0569307,-0.282264,2.96038,0.0344648,0.00992412,1355,0.00679109,3.509
2,1,Potentiostatic EIS,65.3641,3.50886,-0.0375026,177828,0.261098,78.0612,0.0540124,-0.255451,2.29434,0.0380342,0.00993069,1355,0.00761973,3.50886
2,1,Potentiostatic EIS,65.8709,3.50883,-0.0390104,158489,0.235175,77.3687,0.0514271,-0.229483,2.68058,0.0424214,0.0099766,1360,0.00858103,3.50883
2,1,Potentiostatic EIS,66.4139,3.50875,-0.0411318,141254,0.212668,76.8167,0.0485025,-0.207063,2.61763,0.0470133,0.00999833,1355,0.00959267,3.50875
2,1,Potentiostatic EIS,67.2111,3.50861,-0.0428959,125892,0.19176,75.9148,0.0466675,-0.185994,2.86693,0.0519994,0.00997137,1370,0.0108823,3.50861
2,1,Potentiostatic EIS,68.2154,3.50931,-0.0228259,112202,0.173576,74.8884,0.0452513,-0.167574,4.06259,0.0575384,0.00998734,1360,0.012121,3.50931
2,1,Potentiostatic EIS,68.7191,3.50929,-0.0228597,99999.9,0.156848,74.2087,0.0426835,-0.150928,3.64104,0.0624851,0.0097999,1370,0.0137,3.50929
2,1,Potentiostatic EIS,69.2651,3.50932,-0.0229867,89125.1,0.142573,73.2446,0.0411019,-0.13652,4.11494,0.068686,0.00979243,1365,0.0153156,3.50932
2,1,Potentiostatic EIS,69.8596,3.50931,-0.0225329,79432.8,0.127951,71.9906,0.0395589,-0.121682,5.68766,0.0766054,0.00980222,1365,0.0171843,3.50931
2,1,Potentiostatic EIS,70.5064,3.50933,-0.0219989,70794.5,0.116664,70.9441,0.0380898,-0.110271,4.10261,0.0838069,0.00977856,1370,0.0193518,3.50933
2,1,Potentiostatic EIS,70.721,3.50934,-0.0217258,63095.7,0.1055,69.8793,0.0362918,-0.0990612,4.62512,0.0925176,0.00976081,1290,0.0204451,3.50934
2,1,Potentiostatic EIS,70.9403,3.50932,-0.0219583,56234.1,0.0963584,68.4845,0.0353397,-0.089644,4.67616,0.101374,0.0097676,1150,0.0204502,3.50932
2,1,Potentiostatic EIS,71.16,3.50936,-0.0221382,50118.7,0.0879199,66.7746,0.0346712,-0.0807949,4.83137,0.111259,0.00978006,1025,0.0204515,3.50936
2,1,Potentiostatic EIS,71.3878,3.50924,-0.0223996,44668.3,0.0795045,65.1055,0.0334673,-0.0721173,5.27959,0.122788,0.00976372,910,0.0203724,3.50924
2,1,Potentiostatic EIS,71.6089,3.50927,-0.0218455,39810.7,0.0728133,63.7345,0.0322222,-0.0652955,5.01558,0.134593,0.00980034,815,0.0204719,3.50927
2,1,Potentiostatic EIS,71.83,3.50933,-0.0211598,35481.3,0.0664327,62.0924,0.0310937,-0.0587068,5.25349,0.147971,0.00983017,725,0.0204333,3.50933
2,1,Potentiostatic EIS,72.0522,3.50939,-0.0211788,31622.8,0.0611427,59.9981,0.0305731,-0.0529501,5.99932,0.162207,0.00991778,645,0.0203967,3.50939
2,1,Potentiostatic EIS,72.2722,3.50927,-0.0215357,28183.8,0.0557973,58.1331,0.029458,-0.0473874,5.67618,0.177276,0.00989133,575,0.0204018,3.50927
2,1,Potentiostatic EIS,72.4956,3.50962,-0.0119984,25118.8,0.0522208,55.7461,0.0293931,-0.0431632,5.84447,0.190712,0.00995929,510,0.0203035,3.50962
2,1,Potentiostatic EIS,72.715,3.50959,-0.0110798,22387.2,0.0477724,53.6663,0.0283045,-0.0384844,5.87317,0.208291,0.00995065,455,0.0203241,3.50959
2,1,Potentiostatic EIS,72.9376,3.50974,-0.00952567,19952.6,0.0447749,51.1262,0.028101,-0.0348586,5.85558,0.226522,0.0101426,405,0.0202981,3.50974
2,1,Potentiostatic EIS,73.1569,3.50973,-0.00933431,17782.8,0.0416807,48.7827,0.0274641,-0.0313528,6.15086,0.242678,0.0101152,360,0.0202443,3.50973
2,1,Potentiostatic EIS,73.3963,3.50973,-0.00821698,15848.9,0.0388224,46.2236,0.0268591,-0.0280315,6.04677,0.255853,0.00993278,320,0.0201906,3.50973
2,1,Potentiostatic EIS,73.6373,3.50976,-0.00808344,14125.4,0.0369916,43.5106,0.0268281,-0.0254683,5.86639,0.269047,0.00995291,285,0.0201765,3.50976
2,1,Potentiostatic EIS,73.8583,3.5098,-0.00716314,12589.2,0.0346593,41.0567,0.0261352,-0.0227644,5.94232,0.288886,0.0100126,255,0.0202554,3.5098
2,1,Potentiostatic EIS,74.0779,3.50983,-0.00636646,11220.2,0.0330522,38.2514,0.0259559,-0.0204631,5.56482,0.303208,0.0100219,225,0.0200532,3.50983
2,1,Potentiostatic EIS,74.382,3.51007,-0.00524693,9999.98,0.0316804,36.1214,0.0255905,-0.0186755,2.46176,0.314882,0.0099756,307,0.0307001,3.51007
2,1,Potentiostatic EIS,74.6408,3.51007,-0.0046594,8912.5,0.0303886,33.8799,0.0252289,-0.0169402,2.69529,0.335481,0.0101948,273,0.0306311,3.51007
2,1,Potentiostatic EIS,74.8964,3.51009,-0.00443149,7943.27,0.0291273,31.8732,0.0247354,-0.0153804,2.94114,0.34754,0.0101229,244,0.0307178,3.51009
2,1,Potentiostatic EIS,75.1088,3.5101,-0.0041785,7079.45,0.0275135,29.8121,0.0238724,-0.0136785,3.25657,0.33467,0.00920797,217,0.0306521,3.5101
2,1,Potentiostatic EIS,75.3198,3.5101,-0.0043251,6309.57,0.0263191,25.8163,0.0236923,-0.0114616,3.36071,0.379967,0.0100004,193,0.0305885,3.5101
2,1,Potentiostatic EIS,75.5316,3.51009,-0.00458638,5623.41,0.0258654,22.656,0.0238695,-0.00996329,3.35595,0.40599,0.0105011,172,0.0305864,3.51009
2,1,Potentiostatic EIS,75.7453,3.51011,-0.00380491,5011.87,0.0255564,20.0213,0.0240119,-0.00874972,3.36339,0.407206,0.0104067,153,0.0305276,3.51011
2,1,Potentiostatic EIS,75.9571,3.51014,-0.00298633,4466.83,0.025277,17.722,0.0240775,-0.00769428,3.32544,0.407783,0.0103075,137,0.0306705,3.51014
2,1,Potentiostatic EIS,76.1689,3.51016,-0.00279005,3981.07,0.0250185,15.694,0.0240858,-0.0067675,3.30193,0.408268,0.0102142,122,0.0306451,3.51016
2,1,Potentiostatic EIS,76.3797,3.51017,-0.00240774,3548.13,0.0248003,13.8173,0.0240826,-0.00592296,3.26122,0.408147,0.0101222,108,0.0304386,3.51017
2,1,Potentiostatic EIS,76.5479,3.51019,-0.0017368,3162.27,0.0246445,12.0393,0.0241024,-0.00514042,3.20608,0.377152,0.00929472,97,0.0306742,3.51019
2,1,Potentiostatic EIS,76.7167,3.51019,-0.00174502,2818.38,0.0245197,10.4102,0.0241161,-0.00443055,3.06591,0.423734,0.0103898,86,0.030514,3.51019
2,1,Potentiostatic EIS,76.8875,3.5102,-0.00172843,2511.88,0.0244259,8.8645,0.0241341,-0.00376398,2.97789,0.427623,0.0104451,77,0.0306543,3.5102
2,1,Potentiostatic EIS,77.0556,3.5102,-0.00144745,2238.72,0.0243805,7.46381,0.0241739,-0.00316703,2.74396,0.423865,0.0103341,68,0.0303745,3.5102
2,1,Potentiostatic EIS,77.2234,3.51021,-0.00135508,1995.26,0.0243428,6.1878,0.024201,-0.00262386,2.72611,0.420258,0.0102303,61,0.0305725,3.51021
2,1,Potentiostatic EIS,77.3903,3.51022,-0.00121488,1778.28,0.0243656,5.00527,0.0242727,-0.00212584,2.65767,0.417143,0.0101639,54,0.0303664,3.51022
2,1,Potentiostatic EIS,77.5138,3.51022,-0.00114067,1584.89,0.0243813,3.86217,0.0243259,-0.00164224,2.68303,0.350602,0.00854813,48,0.030286,3.51022
2,1,Potentiostatic EIS,77.6369,3.51022,-0.00100833,1412.53,0.0244413,2.85348,0.0244109,-0.00121674,2.54295,0.386953,0.00945762,43,0.0304417,3.51022
2,1,Potentiostatic EIS,77.7628,3.51022,-0.000930041,1258.92,0.0245197,1.94976,0.0245055,-0.000834238,2.53131,0.406324,0.00996294,38,0.0301845,3.51022
2,1,Potentiostatic EIS,77.8871,3.51024,-0.000662153,1122.02,0.024601,1.08875,0.0245966,-0.000467447,2.33443,0.419517,0.0103205,34,0.0303026,3.51024
2,1,Potentiostatic EIS,78.0096,3.51024,-0.000599368,999.999,0.0247347,0.288899,0.0247344,-0.000124718,2.28505,0.414467,0.0102517,30,0.03,3.51024
2,1,Potentiostatic EIS,78.1325,3.51024,-0.000829967,891.25,0.0248607,-0.435823,0.02486,0.000189102,2.25143,0.409346,0.0101766,27,0.0302945,3.51024
2,1,Potentiostatic EIS,78.2563,3.51024,-0.000822978,794.328,0.0250219,-1.17565,0.0250166,0.000513389,2.21328,0.405344,0.0101425,24,0.0302142,3.51024
2,1,Potentiostatic EIS,78.3793,3.51026,-0.000515752,707.945,0.0251781,-1.73381,0.0251666,0.000761791,2.17422,0.400858,0.0100929,21,0.0296633,3.51026
2,1,Potentiostatic EIS,78.5024,3.51025,-0.000708658,630.956,0.0253591,-2.25175,0.0253396,0.000996368,2.13106,0.397133,0.010071,19,0.030113,3.51025
2,1,Potentiostatic EIS,78.6262,3.51026,-0.000151583,562.34,0.0255413,-2.72356,0.0255125,0.00121365,2.0853,0.393602,0.0100531,17,0.0302308,3.51026
2,1,Potentiostatic EIS,78.752,3.51025,-9.91587e-05,501.185,0.0257522,-3.24224,0.025711,0.00145648,2.02819,0.38977,0.0100374,15,0.029929,3.51025
2,1,Potentiostatic EIS,78.8312,3.51026,-5.4482e-05,446.683,0.0259514,-3.59224,0.0259004,0.00162599,2.04036,0.326973,0.00848543,13,0.0291034,3.51026
2,1,Potentiostatic EIS,78.9125,3.51025,-0.000139156,398.107,0.0261889,-3.95725,0.0261265,0.00180735,1.95638,0.335827,0.00879496,12,0.0301427,3.51025
2,1,Potentiostatic EIS,78.9919,3.51026,6.47192e-05,354.813,0.0263959,-4.27729,0.0263224,0.0019687,1.8859,0.342544,0.00904176,10,0.0281839,3.51026
2,1,Potentiostatic EIS,79.071,3.51025,4.90159e-05,316.227,0.0266497,-4.55818,0.0265654,0.00211788,1.78188,0.347114,0.00925047,9,0.0284606,3.51025
2,1,Potentiostatic EIS,79.1496,3.51025,-0.000304028,281.838,0.0268843,-4.72521,0.026793,0.00221465,1.72106,0.350012,0.00940983,8,0.0283851,3.51025
2,1,Potentiostatic EIS,79.2305,3.51024,-0.00032823,251.188,0.027135,-4.94319,0.0270341,0.00233817,1.63537,0.351409,0.00953547,8,0.0318487,3.51024
2,1,Potentiostatic EIS,79.3146,3.51024,-0.000457745,223.872,0.0273963,-5.1074,0.0272875,0.0024389,1.50395,0.351748,0.0096366,8,0.0357347,3.51024
2,1,Potentiostatic EIS,79.4037,3.51024,-0.000242872,199.526,0.0276588,-5.19801,0.0275451,0.00250583,1.39361,0.351131,0.00971187,8,0.0400951,3.51024
2,1,Potentiostatic EIS,79.4978,3.51024,-0.000319565,177.828,0.0279176,-5.27422,0.0277994,0.00256625,1.31658,0.349844,0.00976681,8,0.0449874,3.51024
2,1,Potentiostatic EIS,79.5969,3.51024,-0.000202813,158.489,0.0281727,-5.29053,0.0280526,0.00259769,1.22531,0.348176,0.00980903,8,0.0504767,3.51024
2,1,Potentiostatic EIS,79.7027,3.51025,9.75323e-05,141.253,0.0284292,-5.337,0.028306,0.0026443,1.11782,0.346181,0.00984167,8,0.0566359,3.51025
2,1,Potentiostatic EIS,79.8146,3.51026,7.1948e-05,125.892,0.0286774,-5.30012,0.0285547,0.002649,1.04148,0.34396,0.00986385,8,0.0635464,3.51026
2,1,Potentiostatic EIS,79.9348,3.51026,-0.000103655,112.201,0.028936,-5.27886,0.0288132,0.0026622,0.943586,0.341439,0.00987986,8,0.0713003,3.51026
2,1,Potentiostatic EIS,80.0626,3.51026,5.58777e-05,99.9997,0.0291881,-5.20874,0.0290676,0.00264982,0.842028,0.338864,0.00989079,8,0.0800003,3.51026
2,1,Potentiostatic EIS,80.2038,3.51025,-0.000171212,89.1248,0.0294265,-5.11504,0.0293094,0.00262355,0.784826,0.336376,0.00989838,8,0.0897617,3.51025
2,1,Potentiostatic EIS,80.3558,3.51025,-0.000284495,79.4325,0.0296561,-5.01737,0.0295424,0.00259365,0.71169,0.333891,0.0099019,8,0.100714,3.51025
2,1,Potentiostatic EIS,80.52,3.51025,-0.000295686,70.7943,0.0298816,-4.87133,0.0297737,0.0025375,0.646146,0.331391,0.00990248,8,0.113003,3.51025
2,1,Potentiostatic EIS,80.6982,3.51026,5.38388e-05,63.0956,0.030106,-4.74304,0.0300029,0.00248938,0.591127,0.329014,0.0099053,8,0.126792,3.51026
2,1,Potentiostatic EIS,80.8936,3.51027,0.000393392,56.2341,0.0303177,-4.62159,0.0302192,0.00244284,0.499337,0.319052,0.00967293,8,0.142263,3.51027
2,1,Potentiostatic EIS,81.1081,3.51028,0.000215232,50.1186,0.0305113,-4.43762,0.0304198,0.00236077,0.452325,0.317871,0.00969867,8,0.159621,3.51028
2,1,Potentiostatic EIS,81.3425,3.51026,-0.000281182,44.6682,0.0307008,-4.25209,0.0306163,0.00227631,0.413579,0.316712,0.00972332,8,0.179098,3.51026
2,1,Potentiostatic EIS,81.6022,3.51025,-0.000572197,39.8106,0.0308758,-4.08265,0.0307974,0.00219821,0.378194,0.315456,0.00973994,8,0.200952,3.51025
2,1,Potentiostatic EIS,81.8863,3.51026,0.00027099,35.4812,0.0310454,-3.88954,0.0309739,0.0021059,0.34883,0.314521,0.00976441,8,0.225471,3.51026
2,1,Potentiostatic EIS,82.0306,3.51027,-0.000357548,31.6227,0.0312054,-3.70967,0.0311401,0.00201901,0.35509,0.316968,0.00989119,2,0.0632458,3.51027
2,1,Potentiostatic EIS,82.1758,3.51025,-0.000707456,28.1838,0.0313404,-3.50609,0.0312817,0.00191661,0.349617,0.316206,0.00991007,2,0.0709628,3.51025
2,1,Potentiostatic EIS,82.3384,3.51026,-0.000728996,25.1188,0.0314476,-3.32531,0.0313946,0.00182412,0.343526,0.3064,0.009635,2,0.0796217,3.51026
2,1,Potentiostatic EIS,82.5193,3.51026,-0.00108577,22.3871,0.0315192,-3.17061,0.031471,0.00174331,0.316184,0.307363,0.00968782,2,0.0893371,3.51026
2,1,Potentiostatic EIS,82.719,3.51028,-0.000683024,19.9525,0.0316231,-3.01358,0.0315794,0.00166251,0.507663,0.307992,0.00973974,2,0.100238,3.51028
2,1,Potentiostatic EIS,82.9418,3.51027,-0.000660371,17.7828,0.0317583,-2.82949,0.0317196,0.00156771,1.80756,0.308149,0.0097864,2,0.112468,3.51027
2,1,Potentiostatic EIS,83.189,3.51026,-0.000883286,15.8489,0.0318673,-2.68849,0.0318322,0.00149476,0.944503,0.308006,0.00981531,2,0.126192,3.51026
2,1,Potentiostatic EIS,83.4642,3.51025,-0.00108422,14.1253,0.0319671,-2.53369,0.0319359,0.00141317,0.753416,0.307847,0.00984098,2,0.14159,3.51025
2,1,Potentiostatic EIS,83.7708,3.51026,-0.000926292,12.5892,0.0320651,-2.40101,0.0320369,0.00134331,0.721405,0.307551,0.00986162,2,0.158866,3.51026
2,1,Potentiostatic EIS,84.1132,3.51026,-0.00101779,11.2201,0.0321348,-2.26295,0.0321098,0.00126887,0.278881,0.307432,0.00987925,2,0.178251,3.51026
2,1,Potentiostatic EIS,84.4945,3.51026,-0.001176,9.99996,0.0322008,-2.15902,0.032178,0.0012131,0.276118,0.307498,0.00990169,2,0.200001,3.51026
2,1,Potentiostatic EIS,84.9206,3.51027,-0.000965506,8.91248,0.0322637,-2.0355,0.0322433,0.00114597,0.286756,0.306703,0.00989535,2,0.224404,3.51027
2,1,Potentiostatic EIS,85.3962,3.51026,-0.00116856,7.94325,0.0323187,-1.94823,0.0323,0.00109872,0.266985,0.306594,0.00990871,2,0.251786,3.51026
2,1,Potentiostatic EIS,85.9282,3.51027,-0.0009063,7.07944,0.0323737,-1.85807,0.0323566,0.00104968,0.26857,0.306372,0.00991838,2,0.282508,3.51027
2,1,Potentiostatic EIS,86.5223,3.51026,-0.00119305,6.30955,0.032418,-1.75302,0.0324029,0.000991705,0.27005,0.306169,0.0099254,2,0.31698,3.51026
2,1,Potentiostatic EIS,87.1861,3.51026,-0.00118867,5.62339,0.0324646,-1.69295,0.0324504,0.00095911,0.271564,0.305803,0.00992777,2,0.355657,3.51026
2,1,Potentiostatic EIS,87.9303,3.51025,-0.00122239,5.01185,0.0325127,-1.65197,0.0324992,0.000937284,0.277623,0.305361,0.0099281,2,0.399054,3.51025
2,1,Potentiostatic EIS,88.7626,3.51025,-0.00123977,4.46682,0.0325562,-1.59406,0.0325437,0.000905652,0.27316,0.30515,0.00993455,2,0.447745,3.51025
2,1,Potentiostatic EIS,89.6942,3.51025,-0.00131507,3.98106,0.0325937,-1.54965,0.0325818,0.000881437,0.262894,0.30492,0.00993847,2,0.502378,3.51025
2,1,Potentiostatic EIS,90.7342,3.51025,-0.00128785,3.54812,0.032643,-1.50443,0.0326317,0.000857015,0.27541,0.304531,0.00994077,2,0.563679,3.51025
2,1,Potentiostatic EIS,91.8991,3.51026,-0.00111203,3.16227,0.0326697,-1.47911,0.0326589,0.000843289,0.280876,0.304182,0.00993752,2,0.632458,3.51026
2,1,Potentiostatic EIS,93.2045,3.51026,-0.00136126,2.81837,0.0327149,-1.46383,0.0327042,0.000835728,0.28815,0.303975,0.0099445,2,0.70963,3.51026
2,1,Potentiostatic EIS,94.6671,3.51026,-0.00144191,2.51188,0.0327523,-1.4332,0.032742,0.000819185,0.282973,0.303591,0.0099433,2,0.796217,3.51026
2,1,Potentiostatic EIS,96.3076,3.51027,-0.00130146,2.23872,0.0328024,-1.43677,0.0327921,0.000822476,0.289975,0.303205,0.00994586,2,0.893369,3.51027
2,1,Potentiostatic EIS,98.1453,3.51027,-0.00112802,1.99526,0.0328398,-1.43381,0.0328295,0.00082172,0.245021,0.30294,0.0099485,2,1.00238,3.51027
2,1,Potentiostatic EIS,100.206,3.51027,-0.00140926,1.77827,0.0328814,-1.45573,0.0328708,0.000835336,0.262302,0.302322,0.00994076,2,1.12469,3.51027
2,1,Potentiostatic EIS,102.515,3.51027,-0.00134832,1.58489,0.0329143,-1.48341,0.0329032,0.000852066,0.288679,0.302233,0.00994778,2,1.26192,3.51027
2,1,Potentiostatic EIS,105.104,3.51027,-0.00130216,1.41253,0.0329643,-1.48366,0.0329533,0.00085351,0.25705,0.301844,0.00995009,2,1.4159,3.51027
2,1,Potentiostatic EIS,108.009,3.51026,-0.0015711,1.25892,0.0330073,-1.52516,0.0329956,0.000878522,0.261676,0.301547,0.00995327,2,1.58866,3.51026
2,1,Potentiostatic EIS,111.265,3.51027,-0.00137278,1.12202,0.033029,-1.52599,0.0330173,0.000879577,0.265741,0.301047,0.00994328,2,1.78251,3.51027
2,1,Potentiostatic EIS,114.917,3.51026,-0.00135197,0.999995,0.0330769,-1.5725,0.0330645,0.000907695,0.254126,0.300775,0.00994871,2,2.00001,3.51026
2,1,Potentiostatic EIS,119.013,3.51026,-0.0016452,0.891248,0.033128,-1.61774,0.0331148,0.000935244,0.263686,0.300234,0.00994615,2,2.24404,3.51026
2,1,Potentiostatic EIS,123.607,3.51027,-0.00140142,0.794324,0.0331708,-1.6869,0.0331564,0.000976472,0.251056,0.299832,0.00994567,2,2.51786,3.51027
2,1,Potentiostatic EIS,128.761,3.51028,-0.001123,0.707944,0.0332073,-1.74566,0.0331919,0.00101159,0.214777,0.29969,0.00995185,2,2.82508,3.51028
2,1,Potentiostatic EIS,134.54,3.51028,-0.00139568,0.630955,0.0332592,-1.82144,0.0332424,0.00105714,0.263427,0.299057,0.00994639,2,3.1698,3.51028
2,1,Potentiostatic EIS,141.026,3.51027,-0.00107506,0.562339,0.0332935,-1.91285,0.033275,0.00111132,0.267596,0.298952,0.00995318,2,3.55657,3.51027
2,1,Potentiostatic EIS,148.3,3.51027,-0.00115418,0.501186,0.0333439,-1.97581,0.0333241,0.00114962,0.282533,0.298557,0.00995505,2,3.99054,3.51027
2,1,Potentiostatic EIS,156.46,3.51026,-0.00137913,0.446681,0.0334038,-2.07262,0.033382,0.00120809,0.246833,0.297856,0.00994953,2,4.47747,3.51026
2,1,Potentiostatic EIS,165.614,3.51028,-0.000756402,0.398106,0.0334492,-2.17508,0.0334251,0.0012695,0.226819,0.29738,0.00994712,2,5.02379,3.51028
2,1,Potentiostatic EIS,175.884,3.51027,-0.00120236,0.354812,0.0334975,-2.27926,0.033471,0.0013322,0.266433,0.297214,0.00995589,2,5.63679,3.51027
2,1,Potentiostatic EIS,187.4,3.51026,-0.00113377,0.316226,0.0335613,-2.41749,0.0335314,0.00141564,0.266488,0.296414,0.00994803,2,6.32458,3.51026
2,1,Potentiostatic EIS,200.32,3.51025,-0.000793488,0.281837,0.0336294,-2.53897,0.0335963,0.00148974,0.259487,0.295843,0.009949,2,7.09631,3.51025
2,1,Potentiostatic EIS,214.815,3.51025,-0.00116886,0.251188,0.033686,-2.69272,0.0336488,0.00158255,0.249926,0.295232,0.00994517,2,7.96218,3.51025
2,1,Potentiostatic EIS,231.079,3.51025,-0.000854506,0.223871,0.033765,-2.84282,0.0337234,0.00167461,0.240337,0.294661,0.00994921,2,8.9337,3.51025
2,1,Potentiostatic EIS,249.322,3.51024,-0.000778159,0.199525,0.0338398,-3.01135,0.0337931,0.00177773,0.24295,0.293987,0.00994848,2,10.0238,3.51024
2,1,Potentiostatic EIS,269.789,3.51026,-0.000958655,0.177827,0.0339176,-3.14813,0.0338664,0.00186267,0.240068,0.293209,0.00994494,2,11.2469,3.51026
2,1,Potentiostatic EIS,292.76,3.51026,-0.000295973,0.158489,0.0340114,-3.35493,0.0339531,0.00199038,0.242362,0.292784,0.00995798,2,12.6192,3.51026
2,1,Potentiostatic EIS,318.525,3.51026,-0.000347962,0.141253,0.0341226,-3.55583,0.0340569,0.00211632,0.200939,0.291629,0.00995114,2,14.159,3.51026
2,1,Potentiostatic EIS,347.438,3.51026,-0.0011298,0.125892,0.0341579,-3.7513,0.0340847,0.00223481,0.242146,0.291237,0.00994806,2,15.8867,3.51026
2,1,Potentiostatic EIS,379.871,3.51027,-0.000221013,0.112201,0.0342739,-3.98869,0.0341909,0.00238408,0.232836,0.290353,0.00995149,2,17.8251,3.51027
2,1,Potentiostatic EIS,416.262,3.51026,-0.000740412,0.0999997,0.0343781,-4.27835,0.0342823,0.00256468,0.257308,0.289517,0.00995305,2,20.0001,3.51026
2,1,Potentiostatic EIS,457.091,3.51026,-0.000437387,0.0891246,0.03449,-4.53814,0.0343819,0.00272894,0.237078,0.288592,0.00995355,2,22.4405,3.51026
2,1,Potentiostatic EIS,502.891,3.51026,-7.35776e-05,0.0794325,0.0346127,-4.83554,0.0344895,0.00291771,0.221238,0.287499,0.00995109,2,25.1786,3.51026
2,1,Potentiostatic EIS,554.291,3.51026,-0.000764972,0.0707942,0.0347584,-5.16018,0.0346175,0.00312619,0.237683,0.286331,0.00995244,2,28.2509,3.51026
2,1,Potentiostatic EIS,611.948,3.51026,-0.000417652,0.0630955,0.0349236,-5.51631,0.0347618,0.00335717,0.25074,0.284939,0.00995108,2,31.698,3.51026
2,1,Potentiostatic EIS,676.637,3.51027,7.17188e-05,0.0562339,0.0351191,-5.85214,0.0349361,0.0035808,0.224256,0.283363,0.00995148,2,35.5657,3.51027
2,1,Potentiostatic EIS,749.22,3.51028,-0.000515612,0.0501185,0.0353073,-6.27246,0.035096,0.00385756,0.215268,0.281924,0.00995396,2,39.9054,3.51028
2,1,Potentiostatic EIS,821.972,3.51027,-0.000370252,0.05,0.0352914,-6.26919,0.0350804,0.00385382,0.215684,0.282026,0.0099531,2,40,3.51027