File: Data/P190_04/EIS_02_P190_04_3/2_EIS_02_P190_04_3 20230921 143754.csv
Step number,Repeats,Step name,Elapsed Time  (s),DC Working Electrode (V),DC Current (A),Frequency (Hz),|Z| (Ohms),Phase (deg),Z' (Ohms),-Z" (Ohms),THD (%),Amplitude (A),Amplitude (V),No of Cycles,Duration of Each Frequency (s),IR Compensated DC Working Electrode (V)
2,1,Potentiostatic EIS,60.2967,3.46499,-0.00975843,1000000,1.26444,84.8623,0.11323,-1.25936,1.35182,0.00792333,0.0100187,1430,0.00143,3.46499
2,1,Potentiostatic EIS,60.5385,3.4649,-0.0116257,891251,1.13434,84.5602,0.107535,-1.12923,1.31164,0.00859163,0.0097465,1310,0.00146984,3.4649
2,1,Potentiostatic EIS,60.8038,3.46486,-0.0123868,794328,1.02024,84.3351,0.100707,-1.01526,1.38753,0.00984984,0.0100491,1445,0.00181915,3.46486
2,1,Potentiostatic EIS,61.0787,3.46481,-0.0136517,707946,0.914856,84.3789,0.0896091,-0.910457,1.41534,0.0109203,0.00999039,1340,0.0018928,3.46481
2,1,Potentiostatic EIS,61.3535,3.46474,-0.0149906,630957.25,0.817724,83.6563,0.0903527,-0.812717,1.46713,0.0122063,0.00998135,1355,0.00214753,3.46474
2,1,Potentiostatic EIS,61.6427,3.46468,-0.0158692,562341.25,0.733262,83.4791,0.0832736,-0.728518,1.56772,0.013583,0.00995994,1360,0.00241846,3.46468
2,1,Potentiostatic EIS,61.9254,3.46467,-0.0163394,501187,0.658356,83.4916,0.0746242,-0.654113,1.49483,0.0151559,0.00997813,1385,0.00276344,3.46467
2,1,Potentiostatic EIS,62.222,3.46458,-0.0181503,446684,0.589813,82.7621,0.0743104,-0.585113,1.48121,0.0168697,0.00994999,1360,0.00304466,3.46458
2,1,Potentiostatic EIS,62.5236,3.46452,-0.0192452,398107,0.529492,82.2779,0.0711467,-0.524691,1.61766,0.0188166,0.00996325,1400,0.00351664,3.46452
2,1,Potentiostatic EIS,62.8395,3.46449,-0.0196667,354813,0.473844,82.0004,0.0659431,-0.469233,1.7989,0.020907,0.0099067,1365,0.00384709,3.46449
2,1,Potentiostatic EIS,63.3127,3.46441,-0.0212219,316228,0.425701,81.5828,0.0623142,-0.421116,1.98259,0.0233875,0.00995614,1370,0.00433232,3.46441
2,1,Potentiostatic EIS,63.6577,3.46437,-0.0220627,281838.25,0.383142,80.8029,0.0612377,-0.378216,1.82896,0.0255517,0.00979013,1370,0.00486094,3.46437
2,1,Potentiostatic EIS,64.0534,3.46431,-0.0232676,251189,0.344694,80.2291,0.0584975,-0.339694,1.98006,0.0289604,0.00998255,1340,0.00533464,3.46431
2,1,Potentiostatic EIS,64.4698,3.46423,-0.0246258,223872,0.309837,79.8255,0.0547316,-0.304965,2.06522,0.0321759,0.00996933,1360,0.0060749,3.46423
2,1,Potentiostatic EIS,64.9101,3.46417,-0.0258918,199526,0.276564,79.2212,0.0517225,-0.271684,2.39444,0.0359529,0.00994336,1355,0.00679109,3.46417
2,1,Potentiostatic EIS,65.3765,3.46411,-0.0271103,177828,0.250437,78.5863,0.0495594,-0.245484,2.15507,0.0398537,0.00998088,1355,0.00761973,3.46411
2,1,Potentiostatic EIS,65.8766,3.46402,-0.0289073,158489,0.224683,77.5315,0.0485096,-0.219384,2.4197,0.0443204,0.00995808,1360,0.00858103,3.46402
2,1,Potentiostatic EIS,66.4093,3.46393,-0.0307714,141254,0.202294,77.039,0.045372,-0.19714,2.47185,0.0493217,0.00997751,1355,0.00959267,3.46393
2,1,Potentiostatic EIS,67.2055,3.46384,-0.0315946,125892,0.183086,75.8279,0.044826,-0.177513,2.43741,0.0545114,0.00998033,1370,0.0108823,3.46384
2,1,Potentiostatic EIS,67.8114,3.4638,-0.0328853,112202,0.164829,74.7741,0.0432882,-0.159043,2.36888,0.0603779,0.00995203,1360,0.012121,3.4638
2,1,Potentiostatic EIS,68.741,3.46456,-0.0150669,99999.9,0.148952,73.9596,0.0411578,-0.143153,3.30789,0.0669146,0.00996713,1370,0.0137,3.46456
2,1,Potentiostatic EIS,69.2859,3.46456,-0.0153151,89125.1,0.134804,72.6692,0.0401564,-0.128684,3.66864,0.0722198,0.00973604,1365,0.0153156,3.46456
2,1,Potentiostatic EIS,69.8799,3.46455,-0.0151965,79432.8,0.121688,71.3722,0.0388696,-0.115313,5.09205,0.0799711,0.00973342,1365,0.0171843,3.46455
2,1,Potentiostatic EIS,70.5246,3.46454,-0.0152709,70794.5,0.110219,69.9594,0.0377706,-0.103546,4.02711,0.0879721,0.00969625,1370,0.0193518,3.46454
2,1,Potentiostatic EIS,70.7618,3.46454,-0.0154538,63095.7,0.0996532,68.6844,0.0362244,-0.0928361,4.30402,0.100143,0.00997949,1290,0.0204451,3.46454
2,1,Potentiostatic EIS,71.0035,3.46454,-0.0153503,56234.1,0.0908972,67.0611,0.0354272,-0.0837091,4.55063,0.110217,0.0100185,1150,0.0204502,3.46454
2,1,Potentiostatic EIS,71.2457,3.4645,-0.0155421,50118.7,0.0823675,65.2564,0.0344756,-0.0748053,4.86553,0.121516,0.0100091,1025,0.0204515,3.4645
2,1,Potentiostatic EIS,71.4662,3.46453,-0.0152152,44668.3,0.0750167,62.865,0.0342143,-0.0667599,5.12481,0.128948,0.00967297,910,0.0203724,3.46453
2,1,Potentiostatic EIS,71.6853,3.46452,-0.0150267,39810.7,0.0687045,61.1238,0.0331787,-0.0601622,5.31198,0.141462,0.00971979,815,0.0204719,3.46452
2,1,Potentiostatic EIS,71.9071,3.46454,-0.0147973,35481.3,0.0629168,58.8129,0.0325805,-0.0538241,5.6281,0.154853,0.00974156,725,0.0204333,3.46454
2,1,Potentiostatic EIS,72.1259,3.4645,-0.0147346,31622.8,0.0584123,56.0767,0.0325989,-0.0484697,5.49198,0.16825,0.00982713,645,0.0203967,3.4645
2,1,Potentiostatic EIS,72.3466,3.46456,-0.0145261,28183.8,0.0535373,53.9339,0.0315184,-0.0432763,5.80532,0.183538,0.00982636,575,0.0204018,3.46456
2,1,Potentiostatic EIS,72.5655,3.46488,-0.00733239,25118.8,0.0500594,50.9728,0.0315219,-0.0388885,6.06569,0.197827,0.0099031,510,0.0203035,3.46488
2,1,Potentiostatic EIS,72.7904,3.46492,-0.00622779,22387.2,0.0462582,48.402,0.0307108,-0.0345928,5.94207,0.214147,0.00990612,455,0.0203241,3.46492
2,1,Potentiostatic EIS,73.0104,3.46497,-0.00564522,19952.6,0.0438124,45.304,0.0308152,-0.031144,5.99377,0.230887,0.0101156,405,0.0202981,3.46497
2,1,Potentiostatic EIS,73.2284,3.46499,-0.00487778,17782.8,0.0412535,42.4834,0.0304234,-0.0278617,5.81705,0.244929,0.0101045,360,0.0202443,3.46499
2,1,Potentiostatic EIS,73.4656,3.46499,-0.00435094,15848.9,0.0389246,39.4264,0.030067,-0.0247205,5.77763,0.256017,0.00996541,320,0.0201906,3.46499
2,1,Potentiostatic EIS,73.7624,3.46501,-0.00441467,14125.4,0.0374537,36.17,0.0302352,-0.0221045,5.52756,0.266002,0.00996284,285,0.0201765,3.46501
2,1,Potentiostatic EIS,73.9835,3.46506,-0.00332063,12589.2,0.0357585,33.5424,0.0298039,-0.0197585,5.15208,0.280669,0.0100363,255,0.0202554,3.46506
2,1,Potentiostatic EIS,74.2038,3.46508,-0.0028998,11220.2,0.0345193,30.396,0.0297746,-0.0174658,5.18772,0.290026,0.0100117,225,0.0200532,3.46508
2,1,Potentiostatic EIS,74.5525,3.46529,-0.00219054,9999.98,0.0335888,28.227,0.0295945,-0.0158864,2.27539,0.297937,0.0100073,307,0.0307001,3.46529
2,1,Potentiostatic EIS,74.8084,3.46533,-0.00129046,8912.5,0.0327262,25.8939,0.0294406,-0.0142917,2.47185,0.31009,0.0101481,273,0.0306311,3.46533
2,1,Potentiostatic EIS,75.0195,3.46536,-0.000998898,7943.27,0.0318504,23.846,0.0291315,-0.0128765,2.72421,0.294796,0.00938939,244,0.0307178,3.46536
2,1,Potentiostatic EIS,75.2299,3.46533,-0.00152564,7079.45,0.0307122,21.7991,0.028516,-0.0114051,2.87747,0.335643,0.0103083,217,0.0306521,3.46533
2,1,Potentiostatic EIS,75.4427,3.46533,-0.00159237,6309.57,0.029833,18.3174,0.0283213,-0.00937594,3.0039,0.35294,0.0105293,193,0.0305885,3.46533
2,1,Potentiostatic EIS,75.6551,3.46539,-0.000433885,5623.41,0.0296755,15.5127,0.0285944,-0.00793678,3.05303,0.350581,0.0104037,172,0.0305864,3.46539
2,1,Potentiostatic EIS,75.87,3.4654,-0.000193653,5011.87,0.0296442,13.3527,0.0288428,-0.00684618,3.06146,0.346899,0.0102835,153,0.0305276,3.4654
2,1,Potentiostatic EIS,76.0813,3.46541,-0.000157655,4466.83,0.029605,11.5292,0.0290076,-0.00591704,3.03937,0.344297,0.0101929,137,0.0306705,3.46541
2,1,Potentiostatic EIS,76.2483,3.46544,0.000256048,3981.07,0.0295876,9.91218,0.029146,-0.00509317,3.06893,0.296587,0.0087753,122,0.0306451,3.46544
2,1,Potentiostatic EIS,76.4165,3.46543,0.000165596,3548.13,0.0295307,8.48505,0.0292074,-0.00435729,2.99281,0.334,0.00986325,108,0.0304386,3.46543
2,1,Potentiostatic EIS,76.5845,3.46543,0.000432437,3162.27,0.0295736,7.13029,0.0293449,-0.00367086,2.90674,0.356276,0.0105364,97,0.0306742,3.46543
2,1,Potentiostatic EIS,76.7527,3.46542,0.000106558,2818.38,0.0295707,5.92649,0.0294127,-0.00305325,2.82699,0.351993,0.0104087,86,0.030514,3.46542
2,1,Potentiostatic EIS,76.9211,3.46545,0.000826842,2511.88,0.0295948,4.84125,0.0294892,-0.00249766,2.80755,0.348046,0.0103003,77,0.0306543,3.46545
2,1,Potentiostatic EIS,77.0883,3.46546,0.000882728,2238.72,0.0296481,3.76704,0.0295841,-0.00194788,2.61215,0.344104,0.010202,68,0.0303745,3.46546
2,1,Potentiostatic EIS,77.2561,3.46546,0.000951646,1995.26,0.0297278,2.87757,0.0296903,-0.0014924,2.71154,0.340559,0.0101241,61,0.0305725,3.46546
2,1,Potentiostatic EIS,77.3799,3.46545,0.000708791,1778.28,0.0298115,1.97582,0.0297938,-0.00102783,2.60566,0.307034,0.00915314,54,0.0303664,3.46545
2,1,Potentiostatic EIS,77.5046,3.46545,0.000608014,1584.89,0.0299308,1.19168,0.0299243,-0.000622479,2.5402,0.337479,0.010101,48,0.030286,3.46545
2,1,Potentiostatic EIS,77.6274,3.46547,0.00107916,1412.53,0.0300379,0.431362,0.030037,-0.000226144,2.47971,0.345003,0.0103632,43,0.0304417,3.46547
2,1,Potentiostatic EIS,77.7514,3.46547,0.00115588,1258.92,0.0301921,-0.194707,0.0301919,0.000102601,2.45757,0.341835,0.0103207,38,0.0301845,3.46547
2,1,Potentiostatic EIS,77.8744,3.46547,0.00128496,1122.02,0.0303427,-0.808742,0.0303396,0.000428279,2.42814,0.337533,0.0102416,34,0.0303026,3.46547
2,1,Potentiostatic EIS,77.9965,3.46549,0.00127553,999.999,0.0305063,-1.36718,0.0304976,0.000727864,2.41311,0.333472,0.010173,30,0.03,3.46549
2,1,Potentiostatic EIS,78.1201,3.46545,0.000564727,891.25,0.0306909,-1.90171,0.030674,0.00101848,2.35541,0.329934,0.010126,27,0.0302945,3.46545
2,1,Potentiostatic EIS,78.2437,3.46546,0.000638534,794.328,0.0308873,-2.34007,0.0308615,0.00126115,2.30777,0.326253,0.0100771,24,0.0302142,3.46546
2,1,Potentiostatic EIS,78.3709,3.46546,0.000955386,707.945,0.0310952,-2.77771,0.0310586,0.00150691,2.258,0.323542,0.0100606,21,0.0296633,3.46546
2,1,Potentiostatic EIS,78.4947,3.46547,0.00105542,630.956,0.0312972,-3.16584,0.0312495,0.00172843,2.20875,0.320835,0.0100413,19,0.030113,3.46547
2,1,Potentiostatic EIS,78.6174,3.46549,0.00151397,562.34,0.031511,-3.53264,0.0314511,0.00194162,2.14032,0.318749,0.0100441,17,0.0302308,3.46549
2,1,Potentiostatic EIS,78.6967,3.46549,0.00155834,501.185,0.0317445,-3.8799,0.0316717,0.002148,2.12827,0.26912,0.00854309,15,0.029929,3.46549
2,1,Potentiostatic EIS,78.7764,3.46548,0.00145109,446.683,0.0319983,-4.19598,0.0319125,0.00234126,2.04517,0.276355,0.00884287,13,0.0291034,3.46548
2,1,Potentiostatic EIS,78.8562,3.4655,0.00156666,398.107,0.0322462,-4.46021,0.0321485,0.00250768,1.94822,0.281686,0.00908329,12,0.0301427,3.4655
2,1,Potentiostatic EIS,78.935,3.46548,0.00151424,354.813,0.0325086,-4.73287,0.0323977,0.00268229,1.83134,0.285611,0.0092848,10,0.0281839,3.46548
2,1,Potentiostatic EIS,79.0139,3.46549,0.00152901,316.227,0.0327704,-4.92112,0.0326496,0.00281119,1.75064,0.288033,0.00943897,9,0.0284606,3.46549
2,1,Potentiostatic EIS,79.0924,3.46548,0.00125409,281.838,0.0330508,-5.11963,0.0329189,0.0029493,1.62679,0.289388,0.0095645,8,0.0283851,3.46548
2,1,Potentiostatic EIS,79.1734,3.46549,0.00125242,251.188,0.0333284,-5.33459,0.0331841,0.0030986,1.53198,0.289681,0.0096546,8,0.0318487,3.46549
2,1,Potentiostatic EIS,79.2583,3.46548,0.00136016,223.872,0.0336548,-5.44882,0.0335027,0.00319575,1.3995,0.289275,0.0097355,8,0.0357347,3.46548
2,1,Potentiostatic EIS,79.348,3.46549,0.00137343,199.526,0.0339494,-5.60824,0.0337869,0.00331774,1.3307,0.288377,0.0097902,8,0.0400951,3.46549
2,1,Potentiostatic EIS,79.4419,3.46549,0.00147847,177.828,0.0342761,-5.70175,0.0341065,0.00340534,1.21718,0.287016,0.0098378,8,0.0449874,3.46549
2,1,Potentiostatic EIS,79.5413,3.46549,0.00128743,158.489,0.0345767,-5.78226,0.0344008,0.00348354,1.12088,0.285316,0.0098653,8,0.0504767,3.46549
2,1,Potentiostatic EIS,79.6472,3.46549,0.00155001,141.253,0.0348903,-5.82609,0.03471,0.00354169,0.989028,0.283409,0.0098882,8,0.0566359,3.46549
2,1,Potentiostatic EIS,79.7605,3.46549,0.00152686,125.892,0.0352225,-5.86967,0.0350378,0.00360206,0.942555,0.281302,0.00990817,8,0.0635464,3.46549
2,1,Potentiostatic EIS,79.8806,3.46549,0.00145026,112.201,0.0355481,-5.89969,0.0353599,0.00365389,0.845601,0.27895,0.00991617,8,0.0713003,3.46549
2,1,Potentiostatic EIS,80.009,3.4655,0.00159267,99.9997,0.0358703,-5.91361,0.0356794,0.00369567,0.73097,0.276701,0.00992537,8,0.0800003,3.4655
2,1,Potentiostatic EIS,80.1485,3.46549,0.00139277,89.1248,0.0362021,-5.85469,0.0360133,0.00369283,0.663775,0.2743,0.00993023,8,0.0897617,3.46549
2,1,Potentiostatic EIS,80.3009,3.46549,0.00123441,79.4325,0.0365283,-5.80433,0.036341,0.00369416,0.626225,0.27189,0.00993169,8,0.100714,3.46549
2,1,Potentiostatic EIS,80.4647,3.46549,0.00120046,70.7943,0.0368399,-5.72612,0.0366561,0.00367564,0.55167,0.269616,0.00993265,8,0.113003,3.46549
2,1,Potentiostatic EIS,80.6441,3.46549,0.00151841,63.0956,0.0371541,-5.63974,0.0369743,0.00365126,0.498775,0.267344,0.00993293,8,0.126792,3.46549
2,1,Potentiostatic EIS,80.841,3.46549,0.00196755,56.2341,0.0374693,-5.57948,0.0372917,0.00364301,0.440653,0.25766,0.00965434,8,0.142263,3.46549
2,1,Potentiostatic EIS,81.0561,3.4655,0.00178457,50.1186,0.0377691,-5.45714,0.0375979,0.00359188,0.403667,0.256482,0.00968707,8,0.159621,3.4655
2,1,Potentiostatic EIS,81.2919,3.46549,0.00122864,44.6682,0.0380682,-5.30859,0.0379049,0.00352206,0.369108,0.25527,0.00971767,8,0.179098,3.46549
2,1,Potentiostatic EIS,81.5498,3.46547,0.0010207,39.8106,0.038338,-5.17292,0.0381818,0.00345662,0.343238,0.253986,0.0097373,8,0.200952,3.46547
2,1,Potentiostatic EIS,81.8334,3.4655,0.00183418,35.4812,0.0386256,-5.03415,0.0384766,0.00338937,0.315464,0.2529,0.00976842,8,0.225471,3.4655
2,1,Potentiostatic EIS,81.9767,3.46549,0.000877619,31.6227,0.0388687,-4.91496,0.0387257,0.00333015,0.301108,0.254509,0.0098925,2,0.0632458,3.46549
2,1,Potentiostatic EIS,82.1219,3.46549,0.00100527,28.1838,0.0391419,-4.70205,0.0390101,0.00320862,0.267957,0.253106,0.00990707,2,0.0709628,3.46549
2,1,Potentiostatic EIS,82.2845,3.46549,0.00090509,25.1188,0.0393936,-4.55478,0.0392692,0.00312833,0.28467,0.244984,0.00965083,2,0.0796217,3.46549
2,1,Potentiostatic EIS,82.4649,3.46549,0.000923963,22.3871,0.0396259,-4.39562,0.0395093,0.00303704,0.264376,0.245335,0.00972167,2,0.0893371,3.46549
2,1,Potentiostatic EIS,82.6641,3.4655,0.00117056,19.9525,0.0398429,-4.22309,0.0397347,0.00293404,0.253522,0.244979,0.00976074,2,0.100238,3.4655
2,1,Potentiostatic EIS,82.8866,3.4655,0.00117505,17.7828,0.0400608,-4.04702,0.0399609,0.00282729,0.224034,0.244778,0.009806,2,0.112468,3.4655
2,1,Potentiostatic EIS,83.1338,3.46549,0.00101751,15.8489,0.0402664,-3.91608,0.0401723,0.00275001,0.230654,0.244069,0.00982771,2,0.126192,3.46549
2,1,Potentiostatic EIS,83.4087,3.4655,0.00105029,14.1253,0.0404607,-3.74493,0.0403743,0.00264268,0.235825,0.24359,0.00985579,2,0.14159,3.4655
2,1,Potentiostatic EIS,83.7153,3.4655,0.000962399,12.5892,0.0406268,-3.61716,0.0405458,0.00256312,0.227947,0.242912,0.00986872,2,0.158866,3.4655
2,1,Potentiostatic EIS,84.0574,3.46551,0.000787914,11.2201,0.0407954,-3.44241,0.0407218,0.00244957,0.23808,0.242564,0.0098955,2,0.178251,3.46551
2,1,Potentiostatic EIS,84.439,3.4655,0.000682351,9.99996,0.0409484,-3.29588,0.0408807,0.00235421,0.232052,0.241821,0.00990217,2,0.200001,3.4655
2,1,Potentiostatic EIS,84.865,3.4655,0.00079956,8.91248,0.0410885,-3.15637,0.0410261,0.00226238,0.237914,0.241063,0.0099049,2,0.224404,3.4655
2,1,Potentiostatic EIS,85.3406,3.4655,0.00059844,7.94325,0.0412624,-3.05488,0.0412038,0.00219897,0.235515,0.240539,0.0099252,2,0.251786,3.4655
2,1,Potentiostatic EIS,85.8723,3.4655,0.000748068,7.07944,0.0413847,-2.90731,0.0413315,0.00209905,0.241098,0.239802,0.00992415,2,0.282508,3.4655
2,1,Potentiostatic EIS,86.4664,3.46551,0.000567488,6.30955,0.0415219,-2.80898,0.041472,0.00203483,0.230874,0.239338,0.00993777,2,0.31698,3.46551
2,1,Potentiostatic EIS,87.1308,3.4655,0.000478998,5.62339,0.0416365,-2.70707,0.0415901,0.00196648,0.221369,0.238808,0.00994314,2,0.355657,3.4655
2,1,Potentiostatic EIS,87.8714,3.4655,0.000533571,5.01185,0.0417517,-2.59853,0.0417088,0.00189291,0.213904,0.238189,0.00994479,2,0.399054,3.4655
2,1,Potentiostatic EIS,88.7005,3.4655,0.000435558,4.46682,0.0418598,-2.5089,0.0418197,0.0018324,0.223033,0.237669,0.00994878,2,0.447745,3.4655
2,1,Potentiostatic EIS,89.6287,3.4655,0.000240819,3.98106,0.0419625,-2.43263,0.0419247,0.00178109,0.222888,0.237123,0.00995027,2,0.502378,3.4655
2,1,Potentiostatic EIS,90.6691,3.46549,0.000213149,3.54812,0.0420653,-2.36896,0.0420294,0.00173874,0.205819,0.236621,0.00995356,2,0.563679,3.46549
2,1,Potentiostatic EIS,91.8338,3.46549,0.000332907,3.16227,0.0421548,-2.28943,0.0421211,0.00168398,0.231519,0.236162,0.00995538,2,0.632458,3.46549
2,1,Potentiostatic EIS,93.1386,3.4655,9.52749e-05,2.81837,0.0422426,-2.26458,0.0422096,0.00166918,0.211104,0.235739,0.00995822,2,0.70963,3.4655
2,1,Potentiostatic EIS,94.601,3.4655,2.65239e-05,2.51188,0.0423311,-2.1949,0.0423001,0.00162123,0.240952,0.235349,0.0099626,2,0.796217,3.4655
2,1,Potentiostatic EIS,96.2416,3.46549,-6.27493e-05,2.23872,0.0424146,-2.13771,0.0423851,0.00158213,0.207098,0.234699,0.00995465,2,0.893369,3.46549
2,1,Potentiostatic EIS,98.0792,3.46551,3.90614e-05,1.99526,0.0424977,-2.12877,0.0424684,0.0015786,0.204755,0.23447,0.00996443,2,1.00238,3.46551
2,1,Potentiostatic EIS,100.14,3.46551,-0.000132458,1.77827,0.0425848,-2.10032,0.0425562,0.0015607,0.204423,0.233826,0.00995745,2,1.12469,3.46551
2,1,Potentiostatic EIS,102.449,3.4655,-6.8885e-05,1.58489,0.0426877,-2.09365,0.0426592,0.00155951,0.209676,0.233319,0.00995986,2,1.26192,3.4655
2,1,Potentiostatic EIS,105.038,3.4655,0.00146019,1.41253,0.0427492,-2.06912,0.0427213,0.00154346,0.214002,0.232886,0.00995568,2,1.4159,3.4655
2,1,Potentiostatic EIS,107.942,3.4655,0.000601025,1.25892,0.0427916,-2.10876,0.0427626,0.00157458,0.199128,0.23277,0.00996056,2,1.58866,3.4655
2,1,Potentiostatic EIS,111.198,3.4655,0.000373843,1.12202,0.0428502,-2.13765,0.0428204,0.00159833,0.191224,0.232388,0.00995785,2,1.78251,3.4655
2,1,Potentiostatic EIS,114.849,3.4655,0.000368336,0.999995,0.0429278,-2.15663,0.0428974,0.00161544,0.198248,0.232039,0.00996093,2,2.00001,3.4655
2,1,Potentiostatic EIS,118.945,3.4655,0.000148206,0.891248,0.0430228,-2.19025,0.0429914,0.00164424,0.208934,0.231462,0.00995818,2,2.24404,3.4655
2,1,Potentiostatic EIS,123.54,3.4655,3.58886e-05,0.794324,0.0431071,-2.21878,0.0430748,0.0016689,0.165463,0.231137,0.00996365,2,2.51786,3.4655
2,1,Potentiostatic EIS,128.694,3.4655,0.00024923,0.707944,0.0432326,-2.27023,0.0431986,0.00171255,0.216078,0.230276,0.00995541,2,2.82508,3.4655
2,1,Potentiostatic EIS,134.472,3.4655,-0.000202681,0.630955,0.0433025,-2.33401,0.0432666,0.00176349,0.167862,0.230175,0.00996717,2,3.1698,3.4655
2,1,Potentiostatic EIS,140.958,3.4655,-0.000116602,0.562339,0.0433707,-2.41653,0.0433321,0.00182868,0.20161,0.229728,0.00996343,2,3.55657,3.4655
2,1,Potentiostatic EIS,148.232,3.46551,-0.000251323,0.501186,0.0433552,-2.50284,0.0433139,0.00189327,0.164661,0.229835,0.00996457,2,3.99054,3.46551
2,1,Potentiostatic EIS,156.393,3.46551,-0.000531016,0.446681,0.0434447,-2.58341,0.0434005,0.00195821,0.228985,0.229149,0.0099553,2,4.47747,3.46551
2,1,Potentiostatic EIS,165.548,3.46551,-0.000110518,0.398106,0.0435311,-2.68631,0.0434833,0.00204021,0.243283,0.228857,0.00996239,2,5.02379,3.46551
2,1,Potentiostatic EIS,175.818,3.46552,-9.50167e-07,0.354812,0.0436224,-2.7924,0.0435706,0.00212516,0.213331,0.228416,0.00996402,2,5.63679,3.46552
2,1,Potentiostatic EIS,187.335,3.46551,-0.000258607,0.316226,0.0437155,-2.89787,0.0436596,0.00221007,0.190391,0.227852,0.00996063,2,6.32458,3.46551
2,1,Potentiostatic EIS,200.254,3.46551,0.000202195,0.281837,0.043786,-3.05084,0.043724,0.00233038,0.215708,0.227543,0.0099632,2,7.09631,3.46551
2,1,Potentiostatic EIS,214.749,3.46551,9.5036e-05,0.251188,0.0439023,-3.20048,0.0438338,0.00245106,0.197781,0.226994,0.00996555,2,7.96218,3.46551
2,1,Potentiostatic EIS,231.013,3.4655,-0.000119999,0.223871,0.0440243,-3.34106,0.0439495,0.00256571,0.205543,0.226136,0.00995549,2,8.9337,3.4655
2,1,Potentiostatic EIS,249.256,3.4655,0.000272546,0.199525,0.044141,-3.51057,0.0440582,0.00270287,0.203429,0.225536,0.00995534,2,10.0238,3.4655
2,1,Potentiostatic EIS,269.722,3.4655,-1.33495e-05,0.177827,0.0442216,-3.70952,0.0441289,0.00286106,0.189949,0.225296,0.00996292,2,11.2469,3.4655
2,1,Potentiostatic EIS,292.693,3.4655,0.000113132,0.158489,0.0443387,-3.93907,0.044234,0.00304588,0.180359,0.22476,0.00996558,2,12.6192,3.4655
2,1,Potentiostatic EIS,318.459,3.4655,0.000423534,0.141253,0.0444567,-4.12408,0.0443416,0.00319718,0.212704,0.223866,0.00995233,2,14.159,3.4655
2,1,Potentiostatic EIS,347.372,3.46551,0.000124374,0.125892,0.0445482,-4.37649,0.0444183,0.00339947,0.192272,0.223611,0.00996145,2,15.8867,3.46551
2,1,Potentiostatic EIS,379.805,3.4655,0.000246438,0.112201,0.0446755,-4.64826,0.0445286,0.00362043,0.185777,0.222892,0.00995778,2,17.8251,3.4655
2,1,Potentiostatic EIS,416.196,3.46549,0.000406994,0.0999997,0.0448808,-4.89963,0.0447168,0.00383329,0.177507,0.222053,0.00996592,2,20.0001,3.46549
2,1,Potentiostatic EIS,457.023,3.4655,-4.1157e-05,0.0891246,0.0450041,-5.21522,0.0448178,0.00409074,0.167539,0.221464,0.00996676,2,22.4405,3.4655
2,1,Potentiostatic EIS,502.824,3.4655,0.000220641,0.0794325,0.0451343,-5.54543,0.0449231,0.00436155,0.174687,0.220874,0.00996898,2,25.1786,3.4655
2,1,Potentiostatic EIS,554.223,3.4655,-8.44916e-05,0.0707942,0.0453062,-5.90703,0.0450656,0.00466267,0.167979,0.220051,0.00996968,2,28.2509,3.4655
2,1,Potentiostatic EIS,611.88,3.4655,-0.000335875,0.0630955,0.0454385,-6.30592,0.0451636,0.00499083,0.146922,0.219402,0.00996929,2,31.698,3.4655
2,1,Potentiostatic EIS,676.569,3.4655,5.94366e-05,0.0562339,0.0455567,-6.72984,0.0452428,0.0053387,0.192291,0.218579,0.00995772,2,35.5657,3.4655
2,1,Potentiostatic EIS,749.152,3.4655,-0.000102839,0.0501185,0.0458121,-7.20077,0.0454507,0.00574238,0.175047,0.217389,0.00995903,2,39.9054,3.4655
2,1,Potentiostatic EIS,821.904,3.4655,0.000169368,0.05,0.0456652,-7.2389,0.0453012,0.00575412,0.158659,0.21815,0.00996184,2,40,3.4655