File: Data/P190_03/EIS_02_P190_03_3/2_EIS_02_P190_03_3 20230907 111242.csv
Step number,Repeats,Step name,Elapsed Time  (s),DC Working Electrode (V),DC Current (A),Frequency (Hz),|Z| (Ohms),Phase (deg),Z' (Ohms),-Z" (Ohms),THD (%),Amplitude (A),Amplitude (V),No of Cycles,Duration of Each Frequency (s),IR Compensated DC Working Electrode (V)
2,1,Potentiostatic EIS,0,3.45224,-0.013264,1000000,2.0908,87.609,0.0872257,-2.08898,0.96426,0.00482125,0.01008,1430,0.00143,3.45224
2,1,Potentiostatic EIS,0.246548,3.45217,-0.0149767,794328,1.67538,87.1573,0.0830891,-1.67332,1.04054,0.00597697,0.0100137,1445,0.00181915,3.45217
2,1,Potentiostatic EIS,0.503769,3.45211,-0.0165916,630957.375,1.33623,86.6652,0.0777302,-1.33397,0.826407,0.00746997,0.00998163,1355,0.00214753,3.45211
2,1,Potentiostatic EIS,0.769706,3.45203,-0.0178008,501187.25,1.06999,86.6862,0.0618504,-1.0682,1.20102,0.00934055,0.00999428,1385,0.00276344,3.45203
2,1,Potentiostatic EIS,1.05618,3.45197,-0.0191527,398107,0.855531,85.7326,0.0636613,-0.853159,1.21251,0.0114514,0.00979733,1400,0.00351664,3.45197
2,1,Potentiostatic EIS,1.38337,3.45192,-0.020325,316228,0.681812,85.3783,0.0549377,-0.679596,1.14462,0.0145801,0.00994095,1370,0.00433232,3.45192
2,1,Potentiostatic EIS,1.75419,3.45185,-0.0221454,251189,0.548587,84.5668,0.0519426,-0.546122,1.43022,0.0181893,0.00997841,1340,0.00533464,3.45185
2,1,Potentiostatic EIS,2.33454,3.45177,-0.0231494,199526,0.437769,84.2078,0.0441803,-0.435534,1.46797,0.0226803,0.00992876,1355,0.00679109,3.45177
2,1,Potentiostatic EIS,2.80027,3.45169,-0.025352,158489,0.352752,83.1532,0.0420534,-0.350236,1.59058,0.0279018,0.00984243,1360,0.00858102,3.45169
2,1,Potentiostatic EIS,3.37834,3.45159,-0.0275882,125893,0.284648,82.2744,0.0382651,-0.282064,1.80324,0.0351088,0.00999366,1370,0.0108823,3.45159
2,1,Potentiostatic EIS,4.05506,3.45146,-0.0302141,100000,0.228068,81.316,0.0344348,-0.225453,1.95222,0.0437225,0.00997172,1370,0.0137,3.45146
2,1,Potentiostatic EIS,4.79485,3.45135,-0.0319987,79432.8,0.18418,79.9546,0.0321262,-0.181356,2.74129,0.0543135,0.0100035,1365,0.0171843,3.45135
2,1,Potentiostatic EIS,5.17176,3.4519,-0.0167425,63095.7,0.147787,78.7277,0.0288882,-0.144936,3.7448,0.0674695,0.00997115,1290,0.0204451,3.4519
2,1,Potentiostatic EIS,5.39307,3.4519,-0.0170271,50118.75,0.119477,76.7835,0.0273162,-0.116313,4.47301,0.0839379,0.0100285,1025,0.0204514,3.4519
2,1,Potentiostatic EIS,5.61784,3.45189,-0.0171468,39810.7,0.0968532,74.4668,0.025937,-0.0933156,5.1513,0.103661,0.0100397,815,0.0204719,3.45189
2,1,Potentiostatic EIS,5.83728,3.45187,-0.0175955,31622.8,0.0790791,71.4038,0.025218,-0.0749504,5.86966,0.127647,0.0100943,645,0.0203967,3.45187
2,1,Potentiostatic EIS,6.05722,3.45223,-0.0079993,25118.9,0.0647552,68.0196,0.0242372,-0.0600483,6.65891,0.15667,0.0101454,510,0.0203034,3.45223
2,1,Potentiostatic EIS,6.27756,3.45226,-0.00704637,19952.6,0.0533334,63.8286,0.0235231,-0.0478656,6.8844,0.189841,0.0101249,405,0.0202981,3.45226
2,1,Potentiostatic EIS,6.50138,3.45228,-0.00637754,15848.9,0.0442877,59.0284,0.022791,-0.0379733,7.0883,0.226887,0.0100484,320,0.0201906,3.45228
2,1,Potentiostatic EIS,6.74125,3.45234,-0.00465054,12589.2,0.0378454,53.4947,0.0225141,-0.0304202,6.86482,0.263096,0.00995697,255,0.0202554,3.45234
2,1,Potentiostatic EIS,7.04491,3.45255,-0.00476923,9999.98,0.0329492,47.6395,0.022201,-0.0243468,3.08811,0.302854,0.00997881,307,0.0307001,3.45255
2,1,Potentiostatic EIS,7.29985,3.45256,-0.00454064,7943.27,0.0292712,42.09,0.021722,-0.0196204,3.626,0.346235,0.0101347,244,0.0307178,3.45256
2,1,Potentiostatic EIS,7.51175,3.4526,-0.00365852,6309.57,0.0256069,35.355,0.0208845,-0.0148172,4.13876,0.370284,0.00948182,193,0.0305885,3.4526
2,1,Potentiostatic EIS,7.72437,3.45262,-0.00335866,5011.87,0.0241016,27.5088,0.0213767,-0.0111322,4.02477,0.434164,0.010464,153,0.0305276,3.45262
2,1,Potentiostatic EIS,7.93505,3.45264,-0.00289686,3981.07,0.023268,21.4019,0.0216635,-0.00849067,3.84804,0.441455,0.0102718,122,0.0306451,3.45264
2,1,Potentiostatic EIS,8.14678,3.45265,-0.00225793,3162.27,0.0227428,16.2881,0.02183,-0.00637863,3.55604,0.444731,0.0101145,97,0.0306742,3.45265
2,1,Potentiostatic EIS,8.31469,3.4527,-0.0011674,2511.88,0.0224805,11.8521,0.0220013,-0.00461721,3.23302,0.46729,0.0105049,77,0.0306543,3.4527
2,1,Potentiostatic EIS,8.48142,3.4527,-0.0013198,1995.26,0.022419,8.10245,0.0221952,-0.00315982,2.87678,0.458945,0.0102891,61,0.0305725,3.4527
2,1,Potentiostatic EIS,8.64959,3.45272,-0.000750447,1584.89,0.0225075,4.97286,0.0224228,-0.00195104,2.68179,0.45034,0.010136,48,0.030286,3.45272
2,1,Potentiostatic EIS,8.77622,3.4527,-0.00104322,1258.92,0.0227126,2.34883,0.0226935,-0.000930837,2.53026,0.409864,0.00930906,38,0.0301845,3.4527
2,1,Potentiostatic EIS,8.9001,3.45271,-0.000832773,999.999,0.023005,0.161834,0.0230049,-6.49783e-05,2.29175,0.446924,0.0102815,30,0.03,3.45271
2,1,Potentiostatic EIS,9.02389,3.45272,-0.0010101,794.328,0.0233946,-1.60722,0.0233854,0.000656161,2.2181,0.433941,0.0101519,24,0.0302142,3.45272
2,1,Potentiostatic EIS,9.14805,3.45274,-0.000499653,630.956,0.0238244,-3.04584,0.0237907,0.00126591,2.15538,0.423182,0.0100821,19,0.030113,3.45274
2,1,Potentiostatic EIS,9.27208,3.45274,-0.00017337,501.187,0.0243079,-4.23643,0.0242415,0.00179568,2.07318,0.413031,0.0100399,15,0.029929,3.45274
2,1,Potentiostatic EIS,9.35062,3.45275,8.46811e-05,398.107,0.0248337,-5.19032,0.0247318,0.00224656,2.03389,0.352698,0.00875878,12,0.0301427,3.45275
2,1,Potentiostatic EIS,9.42889,3.45275,-6.86486e-05,316.228,0.0253892,-5.94511,0.0252527,0.0026297,1.88445,0.364434,0.0092527,9,0.0284605,3.45275
2,1,Potentiostatic EIS,9.5096,3.45275,-0.000130896,251.189,0.0259908,-6.51497,0.0258229,0.00294899,1.6996,0.367863,0.00956106,8,0.0318486,3.45275
2,1,Potentiostatic EIS,9.59845,3.45275,0.000146445,199.526,0.0266254,-6.88426,0.0264334,0.00319143,1.5086,0.365978,0.00974431,8,0.0400951,3.45275
2,1,Potentiostatic EIS,9.6981,3.45274,0.000283385,158.489,0.0272429,-7.15159,0.027031,0.00339161,1.30396,0.361246,0.00984141,8,0.0504766,3.45274
2,1,Potentiostatic EIS,9.80995,3.45274,-0.000193736,125.892,0.0278969,-7.26627,0.0276728,0.00352842,1.09196,0.354625,0.00989292,8,0.0635464,3.45274
2,1,Potentiostatic EIS,9.93902,3.45274,-0.000265782,100,0.0285406,-7.27606,0.0283108,0.00361467,0.904706,0.347458,0.00991666,8,0.08,3.45274
2,1,Potentiostatic EIS,10.0906,3.45274,-5.34185e-05,79.4327,0.0291663,-7.17724,0.0289378,0.00364402,0.752667,0.340163,0.00992131,8,0.100714,3.45274
2,1,Potentiostatic EIS,10.2693,3.45274,-0.000169381,63.0956,0.0297825,-7.01232,0.0295597,0.00363593,0.613747,0.333187,0.00992315,8,0.126792,3.45274
2,1,Potentiostatic EIS,10.4827,3.45275,0.000610218,50.1186,0.0303627,-6.85025,0.030146,0.00362151,0.499486,0.318986,0.00968527,8,0.159621,3.45275
2,1,Potentiostatic EIS,10.7399,3.45273,-0.000463166,39.8107,0.0309275,-6.57302,0.0307242,0.00354025,0.405864,0.314637,0.00973095,8,0.200951,3.45273
2,1,Potentiostatic EIS,10.8824,3.45274,-0.00172503,31.6228,0.031456,-6.37956,0.0312612,0.00349522,0.347803,0.314051,0.00987885,2,0.0632456,3.45274
2,1,Potentiostatic EIS,11.0453,3.45274,-0.00132644,25.1188,0.0320056,-6.02672,0.0318287,0.00336034,0.305884,0.301167,0.00963892,2,0.0796217,3.45274
2,1,Potentiostatic EIS,11.2455,3.45273,-0.00115668,19.9526,0.0325076,-5.76083,0.0323434,0.00326299,0.262399,0.299676,0.00974177,2,0.100238,3.45273
2,1,Potentiostatic EIS,11.4928,3.45276,-0.00057266,15.8489,0.0329932,-5.43946,0.0328446,0.00312756,0.263128,0.297558,0.00981742,2,0.126192,3.45276
2,1,Potentiostatic EIS,11.7995,3.45275,-0.0013796,12.5892,0.0334715,-5.1259,0.0333376,0.0029905,0.230188,0.294721,0.00986468,2,0.158866,3.45275
2,1,Potentiostatic EIS,12.1812,3.45274,-0.00166371,9.99998,0.0338827,-4.81745,0.033763,0.00284552,0.21548,0.292011,0.00989411,2,0.2,3.45274
2,1,Potentiostatic EIS,12.6569,3.45275,-0.00121522,7.94328,0.0342605,-4.5133,0.0341543,0.00269597,0.214057,0.28916,0.00990673,2,0.251785,3.45275
2,1,Potentiostatic EIS,13.251,3.45275,-0.00131989,6.30957,0.0346426,-4.20147,0.0345495,0.00253805,0.198523,0.286836,0.00993673,2,0.316979,3.45275
2,1,Potentiostatic EIS,13.9942,3.45275,-0.00104046,5.01186,0.034956,-3.94826,0.034873,0.00240691,0.198263,0.284171,0.00993351,2,0.399053,3.45275
2,1,Potentiostatic EIS,14.9244,3.45274,-0.00140092,3.98106,0.0352492,-3.70268,0.0351756,0.00227636,0.200335,0.282076,0.00994298,2,0.502378,3.45274
2,1,Potentiostatic EIS,16.0889,3.45275,-0.00149108,3.16227,0.0355163,-3.49583,0.0354502,0.00216564,0.211053,0.279961,0.00994318,2,0.632458,3.45275
2,1,Potentiostatic EIS,17.5519,3.45275,-0.00106414,2.51188,0.0357905,-3.3327,0.03573,0.00208064,0.200759,0.277903,0.00994629,2,0.796216,3.45275
2,1,Potentiostatic EIS,19.3905,3.45275,-0.00131409,1.99526,0.0360298,-3.22267,0.0359729,0.00202547,0.151984,0.27616,0.00995,2,1.00238,3.45275
2,1,Potentiostatic EIS,21.7012,3.45275,-0.00166538,1.58489,0.0362588,-3.14569,0.0362041,0.0019897,0.188846,0.274371,0.00994837,2,1.26192,3.45275
2,1,Potentiostatic EIS,24.6051,3.45275,-0.00124054,1.25892,0.0364813,-3.10931,0.0364276,0.00197878,0.177749,0.272611,0.00994521,2,1.58866,3.45275
2,1,Potentiostatic EIS,28.2566,3.45275,-0.00147296,0.999998,0.0367198,-3.12845,0.0366651,0.00200397,0.181407,0.271167,0.00995721,2,2,3.45275
2,1,Potentiostatic EIS,32.8507,3.45275,-0.00181767,0.794327,0.0369302,-3.19229,0.0368729,0.00205654,0.191962,0.269486,0.00995215,2,2.51785,3.45275
2,1,Potentiostatic EIS,38.6295,3.45275,-0.00106597,0.630956,0.0371514,-3.26797,0.037091,0.00211785,0.214458,0.267933,0.00995407,2,3.16979,3.45275
2,1,Potentiostatic EIS,45.9032,3.45275,-0.00171483,0.501186,0.0374001,-3.43578,0.0373329,0.00224138,0.188677,0.266166,0.00995463,2,3.99054,3.45275
2,1,Potentiostatic EIS,55.0575,3.45275,-0.00170651,0.398106,0.0376039,-3.66461,0.0375271,0.00240349,0.141152,0.264782,0.00995684,2,5.02379,3.45275
2,1,Potentiostatic EIS,66.574,3.45275,-0.00101036,0.316227,0.0378768,-3.9228,0.0377881,0.00259124,0.150038,0.26271,0.00995059,2,6.32457,3.45275
2,1,Potentiostatic EIS,81.0684,3.45275,-0.00156736,0.251188,0.0381665,-4.25713,0.0380612,0.00283319,0.153724,0.260767,0.00995255,2,7.96216,3.45275
2,1,Potentiostatic EIS,99.3115,3.45275,-0.000864424,0.199526,0.0384809,-4.65423,0.038354,0.00312243,0.157909,0.258694,0.00995478,2,10.0238,3.45275
2,1,Potentiostatic EIS,122.282,3.45276,-0.000172407,0.158489,0.0388286,-5.15199,0.0386717,0.00348673,0.149585,0.25638,0.00995486,2,12.6192,3.45276
2,1,Potentiostatic EIS,151.194,3.45275,-0.00123889,0.125892,0.0392383,-5.71583,0.0390432,0.00390792,0.189655,0.253684,0.00995413,2,15.8866,3.45275
2,1,Potentiostatic EIS,187.585,3.45275,-0.000123588,0.0999997,0.0396738,-6.38293,0.0394279,0.00441065,0.161999,0.251101,0.00996216,2,20.0001,3.45275