File: Data/P190_03/EIS_02_P190_03_4/2_EIS_02_P190_03_4 20230907 114214.csv
Step number,Repeats,Step name,Elapsed Time  (s),DC Working Electrode (V),DC Current (A),Frequency (Hz),|Z| (Ohms),Phase (deg),Z' (Ohms),-Z" (Ohms),THD (%),Amplitude (A),Amplitude (V),No of Cycles,Duration of Each Frequency (s),IR Compensated DC Working Electrode (V)
2,1,Potentiostatic EIS,0,3.45171,-0.00951646,1000000,2.12966,87.1061,0.107521,-2.12695,1.13404,0.00471589,0.0100432,1430,0.00143,3.45171
2,1,Potentiostatic EIS,0.242393,3.45163,-0.0110845,794328,1.70556,86.5719,0.101985,-1.7025,1.12794,0.00586363,0.0100009,1445,0.00181915,3.45163
2,1,Potentiostatic EIS,0.497252,3.45157,-0.0119725,630957.375,1.36035,85.9609,0.0958185,-1.35697,1.15415,0.00735285,0.0100025,1355,0.00214753,3.45157
2,1,Potentiostatic EIS,0.766185,3.45152,-0.012846,501187.25,1.09031,85.826,0.0793587,-1.08741,1.32743,0.00919907,0.0100299,1385,0.00276344,3.45152
2,1,Potentiostatic EIS,1.04155,3.45146,-0.0138435,398107,0.873053,84.758,0.0797648,-0.869402,1.24097,0.0112467,0.00981933,1400,0.00351664,3.45146
2,1,Potentiostatic EIS,1.36892,3.45141,-0.0148698,316228,0.69571,84.1437,0.0709862,-0.692079,1.30168,0.0142888,0.00994091,1370,0.00433232,3.45141
2,1,Potentiostatic EIS,1.73035,3.45132,-0.0159549,251189,0.560053,83.0166,0.0680918,-0.555898,1.34466,0.0178368,0.00998958,1340,0.00533464,3.45132
2,1,Potentiostatic EIS,2.13313,3.45123,-0.0176018,199526,0.44815,82.1816,0.0609635,-0.443984,1.58872,0.0221722,0.00993653,1355,0.00679109,3.45123
2,1,Potentiostatic EIS,2.6411,3.45115,-0.0187304,158489,0.360892,80.6879,0.0583968,-0.356136,1.60222,0.0274682,0.00991309,1360,0.00858102,3.45115
2,1,Potentiostatic EIS,3.21039,3.451,-0.0212408,125893,0.29202,79.157,0.0549347,-0.286807,1.75455,0.0341595,0.00997528,1370,0.0108823,3.451
2,1,Potentiostatic EIS,3.88118,3.45092,-0.0225448,100000,0.234921,77.4927,0.0508752,-0.229346,1.67867,0.0424353,0.00996898,1370,0.0137,3.45092
2,1,Potentiostatic EIS,4.60972,3.45083,-0.0238103,79432.8,0.190688,75.188,0.0487491,-0.184351,2.23528,0.0524407,0.00999982,1365,0.0171843,3.45083
2,1,Potentiostatic EIS,4.90305,3.45072,-0.0251511,63095.7,0.154316,72.6499,0.0460184,-0.147294,1.79972,0.0647479,0.00999162,1290,0.0204451,3.45072
2,1,Potentiostatic EIS,5.28133,3.45138,-0.0127414,50118.75,0.126126,69.5919,0.0439805,-0.118209,4.06243,0.0790079,0.00996499,1025,0.0204514,3.45138
2,1,Potentiostatic EIS,5.49899,3.4514,-0.0125939,39810.7,0.103785,65.7613,0.0426079,-0.0946359,4.74226,0.0967296,0.0100392,815,0.0204719,3.4514
2,1,Potentiostatic EIS,5.72826,3.45141,-0.0122638,31622.8,0.0869854,61.0822,0.0420622,-0.0761396,5.39734,0.115727,0.0100665,645,0.0203967,3.45141
2,1,Potentiostatic EIS,5.95101,3.45173,-0.00616729,25118.9,0.0734928,56.0762,0.0410156,-0.0609829,5.8653,0.137697,0.0101198,510,0.0203034,3.45173
2,1,Potentiostatic EIS,6.1683,3.45176,-0.00537986,19952.6,0.0631002,50.4461,0.0401825,-0.0486519,5.9576,0.160133,0.0101045,405,0.0202981,3.45176
2,1,Potentiostatic EIS,6.38572,3.45185,-0.00436147,15848.9,0.0550859,44.5896,0.0392296,-0.0386716,5.9144,0.182082,0.0100299,320,0.0201906,3.45185
2,1,Potentiostatic EIS,6.58976,3.45193,-0.00319928,12589.2,0.04974,38.3957,0.0389832,-0.0308929,5.60265,0.196035,0.00975072,255,0.0202554,3.45193
2,1,Potentiostatic EIS,6.85556,3.4521,-0.00329814,9999.98,0.0459415,32.6559,0.0386794,-0.0247897,2.53958,0.217924,0.0100117,307,0.0307001,3.4521
2,1,Potentiostatic EIS,7.07087,3.45212,-0.0030064,7943.27,0.0431225,27.6415,0.0382008,-0.0200062,2.96507,0.243507,0.0105006,244,0.0307178,3.45212
2,1,Potentiostatic EIS,7.28276,3.45214,-0.00252956,6309.57,0.040263,22.0239,0.0373249,-0.0150983,3.30871,0.256744,0.0103373,193,0.0305885,3.45214
2,1,Potentiostatic EIS,7.4506,3.45219,-0.00185861,5011.87,0.0394529,16.6963,0.0377896,-0.0113348,3.36589,0.221103,0.00872315,153,0.0305276,3.45219
2,1,Potentiostatic EIS,7.61717,3.45219,-0.00202092,3981.07,0.0390463,12.8273,0.0380719,-0.00866879,3.22257,0.270858,0.010576,122,0.0306451,3.45219
2,1,Potentiostatic EIS,7.78446,3.4522,-0.00160031,3162.27,0.0387523,9.64862,0.0382041,-0.00649509,3.09908,0.266911,0.0103434,97,0.0306742,3.4522
2,1,Potentiostatic EIS,7.95261,3.45222,-0.00144163,2511.88,0.0386514,7.00325,0.038363,-0.00471259,2.94774,0.262884,0.0101608,77,0.0306543,3.45222
2,1,Potentiostatic EIS,8.07599,3.45221,-0.00165601,1995.26,0.0387019,4.80299,0.038566,-0.00324051,2.72764,0.25382,0.00982334,61,0.0305725,3.45221
2,1,Potentiostatic EIS,8.1997,3.45222,-0.00138765,1584.89,0.0388449,2.91856,0.0387945,-0.00197784,2.54746,0.266043,0.0103344,48,0.030286,3.45222
2,1,Potentiostatic EIS,8.32252,3.45223,-0.00101449,1258.92,0.0390583,1.40699,0.0390466,-0.000959044,2.51566,0.261456,0.010212,38,0.0301845,3.45223
2,1,Potentiostatic EIS,8.44822,3.45222,-0.00126555,999.999,0.0393951,0.139487,0.039395,-9.59076e-05,2.39415,0.256787,0.0101162,30,0.03,3.45222
2,1,Potentiostatic EIS,8.57154,3.45224,-0.000983026,794.328,0.0398018,-0.950943,0.0397963,0.000660563,2.29254,0.252672,0.0100568,24,0.0302142,3.45224
2,1,Potentiostatic EIS,8.65022,3.45224,-0.00112709,630.956,0.0402265,-1.84089,0.0402058,0.00129224,2.16305,0.21749,0.00874889,19,0.030113,3.45224
2,1,Potentiostatic EIS,8.72971,3.45224,-0.000903442,501.187,0.0407089,-2.57939,0.0406677,0.00183205,2.008,0.215975,0.00879213,15,0.029929,3.45224
2,1,Potentiostatic EIS,8.80861,3.45224,-0.00101583,398.107,0.0412366,-3.19419,0.0411725,0.00229771,1.80397,0.223976,0.009236,12,0.0301427,3.45224
2,1,Potentiostatic EIS,8.88696,3.45223,-0.000900072,316.228,0.0418094,-3.68886,0.0417227,0.00268994,1.62217,0.227832,0.00952553,9,0.0284605,3.45223
2,1,Potentiostatic EIS,8.96742,3.45223,-0.000999944,251.189,0.0424023,-4.07952,0.0422949,0.00301654,1.37157,0.22888,0.00970505,8,0.0318486,3.45223
2,1,Potentiostatic EIS,9.05765,3.45224,-0.00085862,199.526,0.0430574,-4.34213,0.0429338,0.00325996,1.16387,0.228042,0.0098189,8,0.0400951,3.45224
2,1,Potentiostatic EIS,9.15804,3.45223,-0.000882654,158.489,0.0436939,-4.55757,0.0435557,0.00347195,0.954184,0.226117,0.00987993,8,0.0504766,3.45223
2,1,Potentiostatic EIS,9.27129,3.45225,-0.000823212,125.892,0.0443468,-4.65237,0.0442007,0.00359697,0.80849,0.223613,0.00991654,8,0.0635464,3.45225
2,1,Potentiostatic EIS,9.40041,3.45225,-0.000687748,100,0.0450276,-4.69827,0.0448763,0.00368814,0.634979,0.220662,0.00993588,8,0.08,3.45225
2,1,Potentiostatic EIS,9.55157,3.45225,-0.000651652,79.4327,0.0456789,-4.67574,0.0455269,0.00372358,0.517327,0.217682,0.00994347,8,0.100714,3.45225
2,1,Potentiostatic EIS,9.73018,3.45225,-0.000706175,63.0956,0.046322,-4.57682,0.0461743,0.0036963,0.417118,0.21467,0.00994394,8,0.126792,3.45225
2,1,Potentiostatic EIS,9.94438,3.45224,-0.000589334,50.1186,0.046954,-4.4821,0.0468105,0.00366935,0.332751,0.206955,0.00971736,8,0.159621,3.45224
2,1,Potentiostatic EIS,10.2028,3.45223,-0.00122242,39.8107,0.0475566,-4.32187,0.0474214,0.00358383,0.263578,0.205353,0.00976588,8,0.200951,3.45223
2,1,Potentiostatic EIS,10.3449,3.45223,-0.00166655,31.6228,0.0481172,-4.19066,0.0479885,0.00351619,0.209818,0.205876,0.00990626,2,0.0632456,3.45223
2,1,Potentiostatic EIS,10.5064,3.45224,-0.00131314,25.1188,0.0486812,-3.95412,0.0485653,0.00335694,0.209728,0.198352,0.00965609,2,0.0796217,3.45224
2,1,Potentiostatic EIS,10.7058,3.45224,-0.00120975,19.9526,0.0492339,-3.7781,0.0491269,0.00324415,0.195724,0.198371,0.00976668,2,0.100238,3.45224
2,1,Potentiostatic EIS,10.9528,3.45224,-0.00116864,15.8489,0.0497612,-3.57446,0.0496643,0.00310239,0.172028,0.197751,0.0098404,2,0.126192,3.45224
2,1,Potentiostatic EIS,11.2592,3.45224,-0.00127966,12.5892,0.0502221,-3.37876,0.0501348,0.00295991,0.161984,0.196741,0.00988076,2,0.158866,3.45224
2,1,Potentiostatic EIS,11.6404,3.45225,-0.00101034,9.99998,0.0506632,-3.17251,0.0505856,0.00280382,0.164666,0.195625,0.00991098,2,0.2,3.45225
2,1,Potentiostatic EIS,12.1143,3.45225,-0.00125409,7.94328,0.0510713,-2.98445,0.0510021,0.00265902,0.184307,0.194571,0.00993703,2,0.251785,3.45225
2,1,Potentiostatic EIS,12.7076,3.45225,-0.00131193,6.30957,0.05145,-2.7853,0.0513892,0.00250014,0.186554,0.19323,0.00994172,2,0.316979,3.45225
2,1,Potentiostatic EIS,13.4473,3.45225,-0.00130577,5.01186,0.051796,-2.63198,0.0517414,0.0023785,0.154524,0.192235,0.00995701,2,0.399053,3.45225
2,1,Potentiostatic EIS,14.3747,3.45224,-0.0013397,3.98106,0.052013,-2.47578,0.0519644,0.00224681,0.171072,0.191503,0.00996063,2,0.502378,3.45224
2,1,Potentiostatic EIS,15.5391,3.45225,-0.00146809,3.16227,0.0521842,-2.3614,0.0521399,0.00215012,0.148156,0.191021,0.00996831,2,0.632458,3.45225
2,1,Potentiostatic EIS,17.0012,3.45224,-0.001609,2.51188,0.052471,-2.26045,0.0524302,0.00206956,0.15748,0.190014,0.00997028,2,0.796216,3.45224
2,1,Potentiostatic EIS,18.8398,3.45225,-0.0012684,1.99526,0.0527815,-2.16728,0.0527437,0.00199605,0.15148,0.188823,0.00996639,2,1.00238,3.45225
2,1,Potentiostatic EIS,21.1499,3.45224,-0.00155496,1.58489,0.0530447,-2.14509,0.0530075,0.00198548,0.177525,0.188005,0.00997266,2,1.26192,3.45224
2,1,Potentiostatic EIS,24.0547,3.45225,-0.00151831,1.25892,0.0532832,-2.12002,0.0532467,0.0019711,0.179035,0.18711,0.0099698,2,1.58866,3.45225
2,1,Potentiostatic EIS,27.7062,3.45225,-0.00133206,0.999998,0.0533669,-2.15515,0.0533292,0.00200689,0.147068,0.186788,0.00996829,2,2,3.45225
2,1,Potentiostatic EIS,32.3008,3.45225,-0.00163721,0.794327,0.0529721,-2.23829,0.0529317,0.00206886,0.20085,0.18829,0.0099741,2,2.51785,3.45225
2,1,Potentiostatic EIS,38.0796,3.45224,-0.00158026,0.630956,0.05319,-2.33704,0.0531458,0.00216897,0.18184,0.187539,0.00997521,2,3.16979,3.45224
2,1,Potentiostatic EIS,45.3534,3.45224,-0.00137999,0.501186,0.0532835,-2.45305,0.0532346,0.00228057,0.158315,0.187188,0.0099739,2,3.99054,3.45224
2,1,Potentiostatic EIS,54.5073,3.45224,-0.00167799,0.398106,0.0532344,-2.63588,0.0531781,0.00244818,0.159676,0.187366,0.00997429,2,5.02379,3.45224
2,1,Potentiostatic EIS,66.0225,3.45225,-0.0012622,0.316227,0.053444,-2.86605,0.0533771,0.00267226,0.176356,0.186548,0.0099699,2,6.32457,3.45225
2,1,Potentiostatic EIS,80.5174,3.45224,-0.00109131,0.251188,0.0535173,-3.1176,0.0534381,0.00291057,0.17608,0.186342,0.00997232,2,7.96216,3.45224
2,1,Potentiostatic EIS,98.7611,3.45225,-0.00157845,0.199526,0.0536116,-3.41964,0.0535161,0.00319785,0.154003,0.186065,0.00997522,2,10.0238,3.45225
2,1,Potentiostatic EIS,121.732,3.45225,-0.000705307,0.158489,0.0536115,-3.80543,0.0534932,0.00355811,0.167138,0.186085,0.00997601,2,12.6192,3.45225
2,1,Potentiostatic EIS,150.644,3.45226,-0.000801566,0.125892,0.0527647,-4.33769,0.0526136,0.00399084,0.158888,0.188965,0.00997062,2,15.8866,3.45226
2,1,Potentiostatic EIS,187.035,3.45225,-0.00125204,0.0999997,0.0532036,-4.83844,0.053014,0.00448754,0.157125,0.187483,0.00997482,2,20.0001,3.45225