File: Data/P190/P190_04/EIS_04_P190_04_1/2_EIS_04_P190_04_1 20231005 135419.csv
Step number,Repeats,Step name,Elapsed Time  (s),DC Working Electrode (V),DC Current (A),Frequency (Hz),|Z| (Ohms),Phase (deg),Z' (Ohms),-Z" (Ohms),THD (%),Amplitude (A),Amplitude (V),No of Cycles,Duration of Each Frequency (s),IR Compensated DC Working Electrode (V)
2,1,Potentiostatic EIS,60.3037,3.51284,-0.013226,1000000,3.43623,88.6407,0.0815152,-3.43526,0.81103,0.00289178,0.0099368,1430,0.00143,3.51284
2,1,Potentiostatic EIS,60.5269,3.51282,-0.0141072,891251,3.05906,88.275,0.0920832,-3.05767,0.822932,0.00323377,0.00989249,1310,0.00146984,3.51282
2,1,Potentiostatic EIS,60.7547,3.51281,-0.0142405,794328,2.74465,88.2263,0.0849512,-2.74334,1.0798,0.0036115,0.00991247,1445,0.00181915,3.51281
2,1,Potentiostatic EIS,60.9866,3.51279,-0.0142583,707946,2.45384,88.2289,0.0758389,-2.45267,0.8944,0.00404004,0.00991358,1340,0.0018928,3.51279
2,1,Potentiostatic EIS,61.2228,3.51275,-0.0150675,630957.25,2.19218,87.8247,0.0832095,-2.1906,0.869747,0.0045435,0.00996009,1355,0.00214753,3.51275
2,1,Potentiostatic EIS,61.4658,3.51273,-0.0154925,562341.25,1.95534,87.656,0.0799704,-1.95371,0.936424,0.00501934,0.00981426,1360,0.00241846,3.51273
2,1,Potentiostatic EIS,61.7164,3.51272,-0.0157719,501187,1.74783,87.8119,0.0667317,-1.74656,0.993091,0.00553704,0.00967807,1385,0.00276344,3.51272
2,1,Potentiostatic EIS,61.985,3.5127,-0.0163233,446684,1.55928,87.2768,0.0740815,-1.55752,0.991235,0.00637596,0.00994188,1360,0.00304466,3.5127
2,1,Potentiostatic EIS,62.2605,3.51266,-0.0169685,398107,1.39888,86.9788,0.0737274,-1.39693,1.0343,0.00712151,0.00996213,1400,0.00351664,3.51266
2,1,Potentiostatic EIS,62.5497,3.51265,-0.0174777,354813,1.2459,86.7644,0.0703217,-1.24391,0.982536,0.00798152,0.00994416,1365,0.00384709,3.51265
2,1,Potentiostatic EIS,62.8525,3.51262,-0.0180677,316228,1.11255,86.7307,0.0634485,-1.11074,1.0696,0.00892247,0.0099267,1370,0.00433232,3.51262
2,1,Potentiostatic EIS,63.2057,3.51261,-0.0187413,281838.25,0.996842,86.1876,0.0662807,-0.994636,0.978099,0.00996943,0.00993796,1370,0.00486094,3.51261
2,1,Potentiostatic EIS,63.6606,3.51257,-0.0191146,251189,0.892084,85.9165,0.0635248,-0.88982,0.986942,0.0111779,0.0099716,1340,0.00533464,3.51257
2,1,Potentiostatic EIS,64.0169,3.51254,-0.019848,223872,0.798537,86.0996,0.0543181,-0.796687,1.08229,0.0124507,0.00994225,1360,0.0060749,3.51254
2,1,Potentiostatic EIS,64.391,3.51252,-0.020792,199526,0.710697,85.8257,0.0517325,-0.708811,1.2119,0.0136951,0.00973339,1355,0.00679109,3.51252
2,1,Potentiostatic EIS,64.8264,3.51248,-0.0217134,177828,0.639151,85.4368,0.0508504,-0.637125,1.2429,0.015602,0.00997207,1355,0.00761973,3.51248
2,1,Potentiostatic EIS,65.2874,3.51245,-0.022476,158489,0.572471,84.9964,0.04993,-0.570289,1.36609,0.017443,0.00998564,1360,0.00858103,3.51245
2,1,Potentiostatic EIS,65.7831,3.51243,-0.022748,141254,0.512146,84.9884,0.0447395,-0.510189,1.29985,0.01946,0.00996639,1355,0.00959267,3.51243
2,1,Potentiostatic EIS,66.5408,3.51237,-0.0237694,125892,0.4593,84.3197,0.0454605,-0.457044,1.39986,0.0216925,0.00996341,1370,0.0108823,3.51237
2,1,Potentiostatic EIS,67.1161,3.51233,-0.0248131,112202,0.411129,83.9795,0.043121,-0.408861,1.46714,0.0242742,0.00997985,1360,0.012121,3.51233
2,1,Potentiostatic EIS,67.6848,3.51229,-0.0258283,99999.9,0.367226,83.5447,0.0412864,-0.364897,1.60932,0.0271443,0.00996811,1370,0.0137,3.51229
2,1,Potentiostatic EIS,68.2983,3.51225,-0.0268037,89125.1,0.32916,83.2198,0.0388607,-0.326858,1.53827,0.0303556,0.00999191,1365,0.0153156,3.51225
2,1,Potentiostatic EIS,68.9662,3.51221,-0.0275483,79432.8,0.29549,82.5477,0.0383254,-0.292994,1.99927,0.0338452,0.0100009,1365,0.0171843,3.51221
2,1,Potentiostatic EIS,69.6895,3.51218,-0.0284577,70794.5,0.264436,82.1112,0.0362942,-0.261934,1.78701,0.0377125,0.00997258,1370,0.0193518,3.51218
2,1,Potentiostatic EIS,69.933,3.51213,-0.0297372,63095.7,0.236757,81.7079,0.0341449,-0.234282,1.70093,0.0421877,0.00998825,1290,0.0204451,3.51213
2,1,Potentiostatic EIS,70.1888,3.51206,-0.0312772,56234.1,0.21325,80.9004,0.0337258,-0.210566,1.73977,0.0469262,0.010007,1150,0.0204502,3.51206
2,1,Potentiostatic EIS,70.4441,3.51203,-0.0322888,50118.7,0.189405,80.0052,0.0328728,-0.186531,1.70146,0.0525651,0.00995711,1025,0.0204515,3.51203
2,1,Potentiostatic EIS,70.7893,3.51202,-0.0320024,44668.3,0.170854,79.2069,0.0319946,-0.167832,1.83464,0.0580403,0.00991651,910,0.0203724,3.51202
2,1,Potentiostatic EIS,71.0335,3.51195,-0.0329149,39810.7,0.153379,78.5972,0.0303239,-0.150351,1.71604,0.0643541,0.00987054,815,0.0204719,3.51195
2,1,Potentiostatic EIS,71.3719,3.51259,-0.0148595,35481.3,0.137625,77.64,0.0294591,-0.134435,4.48667,0.0723284,0.00995422,725,0.0204333,3.51259
2,1,Potentiostatic EIS,71.5743,3.5126,-0.0148392,31622.8,0.12431,76.4011,0.0292282,-0.120825,4.78119,0.0783053,0.00973386,645,0.0203967,3.5126
2,1,Potentiostatic EIS,71.7786,3.51262,-0.0146388,28183.8,0.110968,75.4949,0.0277937,-0.107431,5.22984,0.0872421,0.00968133,575,0.0204018,3.51262
2,1,Potentiostatic EIS,71.9992,3.51295,-0.00438652,25118.8,0.100815,74.1807,0.0274826,-0.0969966,5.77039,0.0998508,0.0100665,510,0.0203035,3.51295
2,1,Potentiostatic EIS,72.2241,3.51294,-0.00447849,22387.2,0.0899849,72.6593,0.0268204,-0.085895,6.02131,0.110639,0.00995589,455,0.0203241,3.51294
2,1,Potentiostatic EIS,72.4264,3.51295,-0.00378824,19952.6,0.0818271,71.0289,0.0266013,-0.0773825,6.31478,0.119236,0.00975696,405,0.0202981,3.51295
2,1,Potentiostatic EIS,72.6313,3.51302,-0.00361619,17782.8,0.0737909,69.3628,0.0260076,-0.0690557,6.59032,0.132287,0.00976144,360,0.0202443,3.51302
2,1,Potentiostatic EIS,72.8428,3.51301,-0.0030256,15848.9,0.0665946,67.5108,0.0254731,-0.0615302,6.78128,0.146538,0.00975875,320,0.0201906,3.51301
2,1,Potentiostatic EIS,73.0448,3.51303,-0.00284818,14125.4,0.0608299,65.2245,0.0254916,-0.0552309,7.01769,0.161725,0.00983794,285,0.0201765,3.51303
2,1,Potentiostatic EIS,73.2462,3.51304,-0.0029523,12589.2,0.0552849,63.2242,0.0249059,-0.0493571,7.06841,0.178811,0.00988562,255,0.0202554,3.51304
2,1,Potentiostatic EIS,73.45,3.51303,-0.00261269,11220.2,0.0505887,60.4633,0.0249392,-0.0440142,7.08416,0.194893,0.00985941,225,0.0200532,3.51303
2,1,Potentiostatic EIS,73.7109,3.51321,-0.00242142,9999.98,0.0465037,58.2812,0.0244494,-0.0395579,3.45877,0.215657,0.0100288,307,0.0307001,3.51321
2,1,Potentiostatic EIS,73.9224,3.51321,-0.00258796,8912.5,0.0428911,55.6848,0.0241797,-0.0354259,3.85398,0.239956,0.010292,273,0.0306311,3.51321
2,1,Potentiostatic EIS,74.1335,3.5132,-0.00299928,7943.27,0.0397467,53.2113,0.0238029,-0.0318311,4.22137,0.2667,0.0106004,244,0.0307178,3.5132
2,1,Potentiostatic EIS,74.3453,3.51323,-0.00257922,7079.45,0.0366173,50.8726,0.0231072,-0.0284057,4.56615,0.28799,0.0105454,217,0.0306521,3.51323
2,1,Potentiostatic EIS,74.5602,3.51324,-0.00234517,6309.57,0.0335952,47.2611,0.0227996,-0.0246741,4.84371,0.312955,0.0105138,193,0.0305885,3.51324
2,1,Potentiostatic EIS,74.7768,3.51326,-0.00154919,5623.41,0.031537,43.1942,0.0229917,-0.0215862,4.95528,0.330638,0.0104273,172,0.0305864,3.51326
2,1,Potentiostatic EIS,74.9877,3.51326,-0.00141268,5011.87,0.0299921,39.3961,0.0231772,-0.0190353,4.95006,0.345022,0.0103479,153,0.0305276,3.51326
2,1,Potentiostatic EIS,75.1979,3.51327,-0.00115131,4466.83,0.0287354,35.8712,0.0232853,-0.0168379,4.86955,0.357111,0.0102617,137,0.0306705,3.51327
2,1,Potentiostatic EIS,75.4096,3.51327,-0.000994189,3981.07,0.027695,32.494,0.0233593,-0.0148781,4.7096,0.367876,0.0101883,122,0.0306451,3.51327
2,1,Potentiostatic EIS,75.6218,3.51329,-0.000798516,3548.13,0.0268118,29.2837,0.0233855,-0.0131146,4.56779,0.377137,0.0101117,108,0.0304386,3.51329
2,1,Potentiostatic EIS,75.7894,3.51332,-7.09365e-05,3162.27,0.0261185,26.2207,0.0234308,-0.0115399,4.44656,0.353844,0.00924187,97,0.0306742,3.51332
2,1,Potentiostatic EIS,75.9589,3.51331,-0.000427721,2818.38,0.0255685,23.3342,0.0234773,-0.0101275,4.11362,0.398053,0.0101776,86,0.030514,3.51331
2,1,Potentiostatic EIS,76.1274,3.51329,-0.000955704,2511.88,0.0251183,20.569,0.023517,-0.00882493,3.94158,0.416592,0.0104641,77,0.0306543,3.51329
2,1,Potentiostatic EIS,76.2956,3.51329,-0.000643748,2238.72,0.0247851,17.9884,0.0235736,-0.00765425,3.79117,0.417992,0.01036,68,0.0303745,3.51329
2,1,Potentiostatic EIS,76.4638,3.51332,6.50587e-06,1995.26,0.0245325,15.6412,0.023624,-0.00661426,3.43051,0.418791,0.010274,61,0.0305725,3.51332
2,1,Potentiostatic EIS,76.6311,3.51334,0.000822606,1778.28,0.0243596,13.4141,0.0236951,-0.0056511,3.27205,0.417766,0.0101766,54,0.0303664,3.51334
2,1,Potentiostatic EIS,76.7992,3.51335,0.000919362,1584.89,0.0242591,11.3725,0.0237828,-0.00478357,3.14296,0.416948,0.0101148,48,0.030286,3.51335
2,1,Potentiostatic EIS,76.9238,3.51333,0.000494074,1412.53,0.0242168,9.49039,0.0238853,-0.00399291,2.90903,0.368819,0.00893162,43,0.0304417,3.51333
2,1,Potentiostatic EIS,77.0473,3.51332,0.000632069,1258.92,0.0242171,7.82144,0.0239918,-0.00329561,2.82008,0.388954,0.00941933,38,0.0301845,3.51332
2,1,Potentiostatic EIS,77.1711,3.51332,0.000509806,1122.02,0.0242642,6.28096,0.0241185,-0.0026546,2.65604,0.427467,0.0103721,34,0.0303026,3.51332
2,1,Potentiostatic EIS,77.2944,3.51334,0.000765838,999.999,0.0243283,4.87581,0.0242402,-0.00206781,2.36686,0.4217,0.0102592,30,0.03,3.51334
2,1,Potentiostatic EIS,77.4183,3.51334,0.000770954,891.25,0.0244391,3.60898,0.0243906,-0.00153836,2.40302,0.418244,0.0102215,27,0.0302945,3.51334
2,1,Potentiostatic EIS,77.5416,3.51336,0.00117798,794.328,0.0245535,2.45766,0.0245309,-0.00105288,2.22082,0.413743,0.0101588,24,0.0302142,3.51336
2,1,Potentiostatic EIS,77.6642,3.51337,0.0014679,707.945,0.0247121,1.38653,0.0247048,-0.000597962,2.15825,0.409212,0.0101125,21,0.0296633,3.51337
2,1,Potentiostatic EIS,77.7875,3.51339,0.00154895,630.956,0.0248774,0.442019,0.0248767,-0.000191919,2.10478,0.404919,0.0100733,19,0.030113,3.51339
2,1,Potentiostatic EIS,77.911,3.51334,0.000543511,562.34,0.0250671,-0.390573,0.0250665,0.000170876,2.02148,0.401507,0.0100646,17,0.0302308,3.51334
2,1,Potentiostatic EIS,78.0346,3.51337,0.00171789,501.185,0.0252725,-1.17013,0.0252672,0.000516094,1.97734,0.39729,0.0100405,15,0.029929,3.51337
2,1,Potentiostatic EIS,78.1578,3.51335,0.000944447,446.683,0.0254698,-1.82993,0.0254568,0.000813323,1.92748,0.393596,0.0100248,13,0.0291034,3.51335
2,1,Potentiostatic EIS,78.2365,3.51336,0.00120131,398.107,0.0257097,-2.40654,0.025687,0.00107954,1.94156,0.336837,0.00865998,12,0.0301427,3.51336
2,1,Potentiostatic EIS,78.3153,3.51337,0.00137817,354.813,0.0259356,-2.90397,0.0259023,0.00131395,1.86439,0.344538,0.00893582,10,0.0281839,3.51337
2,1,Potentiostatic EIS,78.3937,3.51336,0.00120193,316.227,0.0261975,-3.33845,0.026153,0.00152558,1.78664,0.349634,0.00915955,9,0.0284606,3.51336
2,1,Potentiostatic EIS,78.4724,3.51337,0.00128798,281.838,0.0264331,-3.74513,0.0263767,0.00172657,1.71267,0.353156,0.00933501,8,0.0283851,3.51337
2,1,Potentiostatic EIS,78.5526,3.51336,0.00125921,251.188,0.0267023,-4.07477,0.0266348,0.00189742,1.60527,0.355072,0.00948122,8,0.0318487,3.51336
2,1,Potentiostatic EIS,78.6379,3.51336,0.00162262,223.872,0.0269823,-4.39521,0.026903,0.00206781,1.54089,0.355586,0.00959453,8,0.0357347,3.51336
2,1,Potentiostatic EIS,78.7275,3.51337,0.00168625,199.526,0.0272432,-4.60555,0.0271552,0.0021875,1.44959,0.355272,0.00967875,8,0.0400951,3.51337
2,1,Potentiostatic EIS,78.8215,3.51337,0.00158348,177.828,0.0274987,-4.7995,0.0274023,0.00230079,1.33497,0.354205,0.00974018,8,0.0449874,3.51337
2,1,Potentiostatic EIS,78.9214,3.51337,0.00157408,158.489,0.0277787,-4.90522,0.027677,0.0023753,1.24538,0.352404,0.00978935,8,0.0504767,3.51337
2,1,Potentiostatic EIS,79.0266,3.51337,0.00161979,141.253,0.0280398,-4.995,0.0279333,0.00244139,1.15594,0.350355,0.00982389,8,0.0566359,3.51337
2,1,Potentiostatic EIS,79.1404,3.51337,0.00123854,125.892,0.0283145,-5.05519,0.0282043,0.00249493,1.07194,0.348041,0.00985458,8,0.0635464,3.51337
2,1,Potentiostatic EIS,79.2617,3.51336,0.00139114,112.201,0.0285668,-5.06959,0.028455,0.00252432,0.978949,0.345423,0.00986762,8,0.0713003,3.51336
2,1,Potentiostatic EIS,79.3903,3.51337,0.00136374,99.9997,0.0288296,-5.05039,0.0287177,0.00253793,0.901519,0.342639,0.00987815,8,0.0800003,3.51337
2,1,Potentiostatic EIS,79.53,3.51337,0.00140826,89.1248,0.0290879,-5.01634,0.0289765,0.00254344,0.793467,0.339994,0.00988971,8,0.0897617,3.51337
2,1,Potentiostatic EIS,79.6817,3.51338,0.00158867,79.4325,0.0293294,-4.93177,0.0292208,0.00252143,0.737673,0.337376,0.00989504,8,0.100714,3.51338
2,1,Potentiostatic EIS,79.8463,3.51337,0.00152837,70.7943,0.0295783,-4.84719,0.0294725,0.00249932,0.654064,0.334766,0.00990181,8,0.113003,3.51337
2,1,Potentiostatic EIS,80.0258,3.51337,0.00169606,63.0956,0.0297975,-4.70165,0.0296972,0.00244242,0.60597,0.332262,0.00990056,8,0.126792,3.51337
2,1,Potentiostatic EIS,80.223,3.51337,0.00160836,56.2341,0.0300167,-4.60849,0.0299196,0.00241174,0.52465,0.325602,0.00977349,8,0.142263,3.51337
2,1,Potentiostatic EIS,80.4366,3.51336,0.00130148,50.1186,0.0302291,-4.44425,0.0301382,0.00234242,0.468776,0.323763,0.00978707,8,0.159621,3.51336
2,1,Potentiostatic EIS,80.6715,3.51336,0.00133173,44.6682,0.0304177,-4.27679,0.030333,0.00226839,0.425328,0.322085,0.0097971,8,0.179098,3.51336
2,1,Potentiostatic EIS,80.9295,3.51335,0.00107393,39.8106,0.0306024,-4.10114,0.030524,0.0021886,0.380252,0.320296,0.00980181,8,0.200952,3.51335
2,1,Potentiostatic EIS,81.2144,3.51337,0.00154523,35.4812,0.0307749,-3.93324,0.0307024,0.00211098,0.341607,0.318926,0.00981491,8,0.225471,3.51337
2,1,Potentiostatic EIS,81.3577,3.51336,0.000823368,31.6227,0.0309356,-3.7409,0.0308697,0.00201838,0.346379,0.320171,0.00990468,2,0.0632458,3.51336
2,1,Potentiostatic EIS,81.5034,3.51334,0.000659919,28.1838,0.0310944,-3.57001,0.031034,0.00193618,0.280798,0.319111,0.00992256,2,0.0709628,3.51334
2,1,Potentiostatic EIS,81.6653,3.51337,0.0011799,25.1188,0.031225,-3.35764,0.0311714,0.0018288,0.30267,0.309224,0.00965538,2,0.0796217,3.51337
2,1,Potentiostatic EIS,81.8455,3.51337,0.0013006,22.3871,0.0313558,-3.18986,0.0313072,0.00174479,0.286268,0.309607,0.00970801,2,0.0893371,3.51337
2,1,Potentiostatic EIS,82.0453,3.51336,0.00122527,19.9525,0.0314739,-3.02788,0.03143,0.00166251,0.272291,0.310032,0.00975788,2,0.100238,3.51336
2,1,Potentiostatic EIS,82.2677,3.51337,0.000930325,17.7828,0.0315566,-2.88105,0.0315168,0.00158612,0.245033,0.309717,0.0097735,2,0.112468,3.51337
2,1,Potentiostatic EIS,82.5149,3.51336,0.000661095,15.8489,0.0316734,-2.70546,0.0316381,0.00149504,0.228732,0.310095,0.00982173,2,0.126192,3.51336
2,1,Potentiostatic EIS,82.7901,3.51337,0.00102148,14.1253,0.0317675,-2.56342,0.0317357,0.00142081,0.256464,0.309943,0.00984611,2,0.14159,3.51337
2,1,Potentiostatic EIS,83.0967,3.51336,0.000874087,12.5892,0.0318534,-2.39831,0.0318255,0.00133294,0.199951,0.309928,0.00987226,2,0.158866,3.51336
2,1,Potentiostatic EIS,83.4389,3.51335,0.00033837,11.2201,0.0319319,-2.26672,0.0319069,0.00126295,0.215188,0.309245,0.00987479,2,0.178251,3.51335
2,1,Potentiostatic EIS,83.8201,3.51335,0.000946292,9.99996,0.0319967,-2.14443,0.0319743,0.00119727,0.201085,0.309461,0.00990172,2,0.200001,3.51335
2,1,Potentiostatic EIS,84.2463,3.51335,0.000877909,8.91248,0.0320588,-2.03373,0.0320386,0.0011377,0.227238,0.308889,0.00990258,2,0.224404,3.51335
2,1,Potentiostatic EIS,84.7215,3.51335,0.000760506,7.94325,0.0320971,-1.953,0.0320785,0.00109386,0.199559,0.308854,0.0099133,2,0.251786,3.51335
2,1,Potentiostatic EIS,85.2538,3.51335,0.000618955,7.07944,0.0321598,-1.86051,0.0321428,0.00104411,0.194484,0.308188,0.0099112,2,0.282508,3.51335
2,1,Potentiostatic EIS,85.8473,3.51335,0.000573051,6.30955,0.0322117,-1.7744,0.0321963,0.000997409,0.236419,0.308037,0.00992239,2,0.31698,3.51335
2,1,Potentiostatic EIS,86.5114,3.51336,0.000471302,5.62339,0.0322647,-1.70476,0.0322504,0.000959852,0.220352,0.307842,0.00993244,2,0.355657,3.51336
2,1,Potentiostatic EIS,87.2547,3.51336,0.000426726,5.01185,0.0323011,-1.64477,0.0322878,0.000927127,0.228869,0.307585,0.00993534,2,0.399054,3.51336
2,1,Potentiostatic EIS,88.0868,3.51335,0.000289048,4.46682,0.0323477,-1.60194,0.0323351,0.000904297,0.200553,0.307066,0.00993289,2,0.447745,3.51335
2,1,Potentiostatic EIS,89.0152,3.51335,0.000245474,3.98106,0.0323952,-1.54868,0.0323834,0.000875521,0.18592,0.30684,0.00994013,2,0.502378,3.51335
2,1,Potentiostatic EIS,90.0553,3.51336,0.000288904,3.54812,0.0324439,-1.48983,0.0324329,0.000843528,0.197497,0.306345,0.00993903,2,0.563679,3.51336
2,1,Potentiostatic EIS,91.2202,3.51336,6.09665e-05,3.16227,0.0324778,-1.50389,0.0324666,0.000852377,0.196047,0.305968,0.00993716,2,0.632458,3.51336
2,1,Potentiostatic EIS,92.5251,3.51335,-7.56346e-05,2.81837,0.0325034,-1.46073,0.0324928,0.000828569,0.224508,0.306037,0.00994722,2,0.70963,3.51335
2,1,Potentiostatic EIS,93.9876,3.51336,8.70976e-05,2.51188,0.0325464,-1.43956,0.0325361,0.000817642,0.217474,0.30544,0.00994095,2,0.796217,3.51336
2,1,Potentiostatic EIS,95.6284,3.51335,-0.000304582,2.23872,0.0325855,-1.4557,0.032575,0.000827801,0.207925,0.305334,0.00994947,2,0.893369,3.51335
2,1,Potentiostatic EIS,97.4663,3.51336,-0.000224333,1.99526,0.0326289,-1.43951,0.0326186,0.000819687,0.231469,0.304797,0.00994518,2,1.00238,3.51336
2,1,Potentiostatic EIS,99.5265,3.51336,-4.77275e-05,1.77827,0.0326559,-1.44316,0.0326456,0.000822444,0.20109,0.304612,0.0099474,2,1.12469,3.51336
2,1,Potentiostatic EIS,101.836,3.51336,-0.000250884,1.58489,0.0327006,-1.44167,0.0326902,0.00082272,0.18381,0.304183,0.00994694,2,1.26192,3.51336
2,1,Potentiostatic EIS,104.426,3.51336,-8.85974e-05,1.41253,0.0327366,-1.48202,0.0327256,0.000846674,0.191587,0.303623,0.00993958,2,1.4159,3.51336
2,1,Potentiostatic EIS,107.33,3.51336,0.000120449,1.25892,0.032769,-1.48302,0.0327581,0.000848087,0.192402,0.303569,0.00994767,2,1.58866,3.51336
2,1,Potentiostatic EIS,110.587,3.51336,-5.38387e-05,1.12202,0.0328129,-1.50992,0.0328016,0.000864623,0.19749,0.303114,0.00994606,2,1.78251,3.51336
2,1,Potentiostatic EIS,114.238,3.51337,7.21696e-05,0.999995,0.0328483,-1.58204,0.0328357,0.000906883,0.187683,0.302837,0.00994764,2,2.00001,3.51337
2,1,Potentiostatic EIS,118.334,3.51337,0.000160845,0.891248,0.0328996,-1.62994,0.0328863,0.000935794,0.193611,0.302402,0.00994891,2,2.24404,3.51337
2,1,Potentiostatic EIS,122.929,3.51335,-0.000208803,0.794324,0.0329344,-1.66732,0.0329204,0.000958264,0.216522,0.301857,0.00994147,2,2.51786,3.51335
2,1,Potentiostatic EIS,128.083,3.51337,0.000232969,0.707944,0.032977,-1.73515,0.0329619,0.000998528,0.210051,0.301846,0.00995396,2,2.82508,3.51337
2,1,Potentiostatic EIS,133.862,3.51337,0.000324044,0.630955,0.0330091,-1.80983,0.0329926,0.0010425,0.2155,0.301443,0.00995037,2,3.1698,3.51337
2,1,Potentiostatic EIS,140.348,3.51337,-5.46678e-06,0.562339,0.0330738,-1.87376,0.0330561,0.00108143,0.185675,0.300624,0.00994278,2,3.55657,3.51337
2,1,Potentiostatic EIS,147.622,3.51337,0.000328292,0.501186,0.0331127,-1.9689,0.0330932,0.00113766,0.186947,0.300547,0.0099519,2,3.99054,3.51337
2,1,Potentiostatic EIS,155.782,3.51338,0.00033969,0.446681,0.033156,-2.07131,0.0331344,0.00119837,0.2173,0.300042,0.00994818,2,4.47747,3.51338
2,1,Potentiostatic EIS,164.937,3.51337,-2.92831e-05,0.398106,0.0332174,-2.16339,0.0331937,0.00125393,0.20605,0.299341,0.00994331,2,5.02379,3.51337
2,1,Potentiostatic EIS,175.206,3.51337,0.000497202,0.354812,0.0332676,-2.2878,0.0332411,0.00132801,0.222335,0.299095,0.00995015,2,5.63679,3.51337
2,1,Potentiostatic EIS,186.721,3.51337,0.000282591,0.316226,0.0333359,-2.41604,0.0333063,0.00140529,0.200554,0.298551,0.00995244,2,6.32458,3.51337
2,1,Potentiostatic EIS,199.641,3.51336,1.26569e-05,0.281837,0.0333949,-2.5339,0.0333623,0.00147641,0.200549,0.297818,0.00994561,2,7.09631,3.51336
2,1,Potentiostatic EIS,214.136,3.51338,0.000620586,0.251188,0.0334522,-2.67062,0.0334159,0.00155868,0.217421,0.297451,0.00995039,2,7.96218,3.51338
2,1,Potentiostatic EIS,230.399,3.51337,0.000164511,0.223871,0.033529,-2.82609,0.0334882,0.00165313,0.186603,0.296854,0.00995322,2,8.9337,3.51337
2,1,Potentiostatic EIS,248.644,3.51336,0.000111289,0.199525,0.0336127,-2.98905,0.0335669,0.00175273,0.185384,0.2961,0.00995271,2,10.0238,3.51336
2,1,Potentiostatic EIS,269.111,3.51336,0.000372121,0.177827,0.0336982,-3.19084,0.0336459,0.00187571,0.211323,0.295113,0.00994476,2,11.2469,3.51336
2,1,Potentiostatic EIS,292.082,3.51336,-0.000166242,0.158489,0.0337831,-3.36054,0.033725,0.00198033,0.198909,0.294306,0.00994257,2,12.6192,3.51336
2,1,Potentiostatic EIS,317.846,3.51335,0.000244226,0.141253,0.0338892,-3.56976,0.0338234,0.00211007,0.207324,0.293782,0.00995603,2,14.159,3.51335
2,1,Potentiostatic EIS,346.759,3.51336,0.000427899,0.125892,0.0339795,-3.77083,0.0339059,0.00223469,0.199817,0.29292,0.00995327,2,15.8867,3.51336
2,1,Potentiostatic EIS,379.192,3.51336,-0.000128565,0.112201,0.0341071,-4.02201,0.0340231,0.00239226,0.199471,0.291714,0.00994951,2,17.8251,3.51336
2,1,Potentiostatic EIS,415.583,3.51336,0.000413454,0.0999997,0.0342108,-4.28676,0.0341151,0.0025572,0.199691,0.29102,0.00995602,2,20.0001,3.51336
2,1,Potentiostatic EIS,456.411,3.51336,-0.000124243,0.0891246,0.034338,-4.54905,0.0342298,0.00272343,0.198178,0.289768,0.00995004,2,22.4405,3.51336
2,1,Potentiostatic EIS,502.211,3.51336,-0.000315437,0.0794325,0.034472,-4.85279,0.0343484,0.00291619,0.189364,0.28854,0.00994655,2,25.1786,3.51336
2,1,Potentiostatic EIS,553.609,3.51336,0.000243994,0.0707942,0.0346215,-5.15443,0.0344815,0.00311041,0.183968,0.287349,0.00994844,2,28.2509,3.51336
2,1,Potentiostatic EIS,611.267,3.51337,-0.000159666,0.0630955,0.0347884,-5.51195,0.0346276,0.00334155,0.186214,0.28626,0.00995853,2,31.698,3.51337
2,1,Potentiostatic EIS,675.957,3.51337,-0.000163976,0.0562339,0.034967,-5.88076,0.034783,0.00358267,0.160478,0.284579,0.00995087,2,35.5657,3.51337
2,1,Potentiostatic EIS,748.54,3.51336,0.000216585,0.0501185,0.0351504,-6.2781,0.0349396,0.00384385,0.165069,0.283029,0.00994857,2,39.9054,3.51336
2,1,Potentiostatic EIS,821.293,3.51336,-7.91697e-06,0.05,0.0351479,-6.30624,0.0349352,0.00386073,0.203056,0.283145,0.00995195,2,40,3.51336