File: Data/P190/P190_04/EIS_04_P190_04_3/2_EIS_04_P190_04_3 20231005 150729.csv
Step number,Repeats,Step name,Elapsed Time  (s),DC Working Electrode (V),DC Current (A),Frequency (Hz),|Z| (Ohms),Phase (deg),Z' (Ohms),-Z" (Ohms),THD (%),Amplitude (A),Amplitude (V),No of Cycles,Duration of Each Frequency (s),IR Compensated DC Working Electrode (V)
2,1,Potentiostatic EIS,60.3007,3.51058,-0.0146156,1000000,3.36434,88.4225,0.0926157,-3.36307,1.10294,0.00296382,0.00997091,1430,0.00143,3.51058
2,1,Potentiostatic EIS,60.5248,3.51053,-0.0154924,891251,2.99612,87.9252,0.108473,-2.99416,1.09354,0.00328586,0.00984481,1310,0.00146984,3.51053
2,1,Potentiostatic EIS,60.7517,3.51054,-0.0153236,794328,2.6967,87.961,0.0959484,-2.69499,1.22068,0.00368583,0.00993942,1445,0.00181915,3.51054
2,1,Potentiostatic EIS,60.9863,3.51052,-0.015614,707946,2.40811,87.8857,0.0888428,-2.40647,1.06798,0.00412066,0.00992309,1340,0.0018928,3.51052
2,1,Potentiostatic EIS,61.2235,3.51048,-0.0167315,630957.25,2.15249,87.491,0.0942291,-2.15043,1.24789,0.00459472,0.00989003,1355,0.00214753,3.51048
2,1,Potentiostatic EIS,61.4646,3.51047,-0.0168969,562341.25,1.91855,87.417,0.0864619,-1.9166,1.12101,0.0050832,0.00975249,1360,0.00241846,3.51047
2,1,Potentiostatic EIS,61.733,3.51045,-0.0175655,501187,1.71634,87.4713,0.0757241,-1.71467,1.19809,0.00580701,0.00996683,1385,0.00276344,3.51045
2,1,Potentiostatic EIS,62.0043,3.51043,-0.0179293,446684,1.53484,86.937,0.0820131,-1.53265,1.04685,0.00648784,0.00995794,1360,0.00304466,3.51043
2,1,Potentiostatic EIS,62.2898,3.51041,-0.0186037,398107,1.37525,86.5466,0.082841,-1.37275,1.26885,0.00723869,0.00995502,1400,0.00351664,3.51041
2,1,Potentiostatic EIS,62.5842,3.51036,-0.0192195,354813,1.22527,86.4787,0.0752566,-1.22296,1.17576,0.00811028,0.00993729,1365,0.00384709,3.51036
2,1,Potentiostatic EIS,62.8908,3.51035,-0.0195497,316228,1.09231,86.2591,0.0712676,-1.08998,1.29191,0.00907581,0.00991374,1370,0.00433232,3.51035
2,1,Potentiostatic EIS,63.2091,3.51032,-0.0203879,281838.25,0.981923,85.9219,0.0698306,-0.979437,1.26179,0.0101331,0.00994991,1370,0.00486094,3.51032
2,1,Potentiostatic EIS,63.6992,3.51031,-0.0201984,251189,0.879366,85.4908,0.0691347,-0.876644,1.32928,0.0113385,0.00997074,1340,0.00533464,3.51031
2,1,Potentiostatic EIS,64.0516,3.51028,-0.0212741,223872,0.785234,85.5228,0.0612966,-0.782838,1.30186,0.0126023,0.00989571,1360,0.0060749,3.51028
2,1,Potentiostatic EIS,64.4277,3.51024,-0.0221245,199526,0.701567,85.3824,0.0564794,-0.69929,1.45295,0.0138173,0.00969413,1355,0.00679109,3.51024
2,1,Potentiostatic EIS,64.8657,3.51023,-0.0224601,177828,0.630525,85.0344,0.0545768,-0.628158,1.64768,0.0157708,0.00994394,1355,0.00761973,3.51023
2,1,Potentiostatic EIS,65.3316,3.51018,-0.0239518,158489,0.565523,84.5139,0.0540667,-0.562933,1.31119,0.0176075,0.00995741,1360,0.00858103,3.51018
2,1,Potentiostatic EIS,65.8296,3.51015,-0.024136,141254,0.507061,84.3419,0.0499925,-0.50459,1.40552,0.0197026,0.0099904,1355,0.00959267,3.51015
2,1,Potentiostatic EIS,66.5896,3.51011,-0.0253229,125892,0.45442,83.6881,0.0499595,-0.451665,1.65232,0.0219504,0.00997473,1370,0.0108823,3.51011
2,1,Potentiostatic EIS,67.1625,3.51006,-0.0267517,112202,0.406687,83.4574,0.0463387,-0.404039,1.72179,0.0245851,0.00999848,1360,0.012121,3.51006
2,1,Potentiostatic EIS,67.736,3.51003,-0.0272447,99999.9,0.363415,83.0523,0.0439601,-0.360746,1.85781,0.0274142,0.00996272,1370,0.0137,3.51003
2,1,Potentiostatic EIS,68.351,3.50999,-0.0282349,89125.1,0.326008,82.6766,0.0415564,-0.323349,1.71474,0.0306256,0.0099842,1365,0.0153156,3.50999
2,1,Potentiostatic EIS,69.02,3.50995,-0.0289138,79432.8,0.292867,82.0577,0.0404672,-0.290057,2.07253,0.0341428,0.00999924,1365,0.0171843,3.50995
2,1,Potentiostatic EIS,69.7425,3.50991,-0.0294355,70794.5,0.262784,81.4806,0.0389299,-0.259885,1.85025,0.0379239,0.00996583,1370,0.0193518,3.50991
2,1,Potentiostatic EIS,69.9905,3.50988,-0.0306778,63095.7,0.235107,81.1138,0.0363175,-0.232286,1.91284,0.0424793,0.00998723,1290,0.0204451,3.50988
2,1,Potentiostatic EIS,70.2393,3.50984,-0.0322735,56234.1,0.212173,80.2621,0.0358873,-0.209116,1.91011,0.0471981,0.0100142,1150,0.0204502,3.50984
2,1,Potentiostatic EIS,70.4957,3.5098,-0.0326516,50118.7,0.188283,79.8445,0.0331981,-0.185333,1.9716,0.0528181,0.00994618,1025,0.0204515,3.5098
2,1,Potentiostatic EIS,70.8348,3.50982,-0.0319596,44668.3,0.170122,78.5119,0.0338822,-0.166714,2.02555,0.0581596,0.00989422,910,0.0203724,3.50982
2,1,Potentiostatic EIS,71.0744,3.50977,-0.0328867,39810.7,0.152905,77.9873,0.0318241,-0.149557,2.00191,0.0645071,0.00986335,815,0.0204719,3.50977
2,1,Potentiostatic EIS,71.4197,3.51032,-0.0161081,35481.3,0.137166,77.1206,0.0305741,-0.133715,4.50324,0.0724856,0.00994252,725,0.0204333,3.51032
2,1,Potentiostatic EIS,71.6392,3.51036,-0.0156558,31622.8,0.12434,75.7916,0.0305192,-0.120536,4.97862,0.0806974,0.0100339,645,0.0203967,3.51036
2,1,Potentiostatic EIS,71.8458,3.51034,-0.0156871,28183.8,0.111146,74.9856,0.0287938,-0.107352,5.07204,0.0869374,0.00966217,575,0.0204018,3.51034
2,1,Potentiostatic EIS,72.0671,3.51069,-0.00520277,25118.8,0.101188,73.5709,0.0286189,-0.0970568,5.56095,0.0994142,0.0100596,510,0.0203035,3.51069
2,1,Potentiostatic EIS,72.2874,3.51069,-0.00509574,22387.2,0.090334,72.1644,0.0276681,-0.0859924,5.87197,0.110233,0.00995793,455,0.0203241,3.51069
2,1,Potentiostatic EIS,72.4883,3.5107,-0.00452831,19952.6,0.0820613,70.5581,0.0273142,-0.0773822,6.19669,0.118886,0.00975617,405,0.0202981,3.5107
2,1,Potentiostatic EIS,72.6923,3.51072,-0.00388807,17782.8,0.0743267,69.0854,0.0265329,-0.0694296,6.35674,0.131347,0.00976271,360,0.0202443,3.51072
2,1,Potentiostatic EIS,72.9,3.51077,-0.00367881,15848.9,0.0670822,67.192,0.026004,-0.061837,6.65247,0.145589,0.00976648,320,0.0201906,3.51077
2,1,Potentiostatic EIS,73.1028,3.51074,-0.00367248,14125.4,0.0613578,64.8833,0.0260442,-0.0555561,6.76136,0.160344,0.00983836,285,0.0201765,3.51074
2,1,Potentiostatic EIS,73.3053,3.51074,-0.00358564,12589.2,0.0558348,62.8959,0.0254388,-0.049703,6.88806,0.177188,0.00989338,255,0.0202554,3.51074
2,1,Potentiostatic EIS,73.511,3.51077,-0.00360959,11220.2,0.0511518,60.2949,0.0253476,-0.0444299,7.05754,0.19299,0.00987184,225,0.0200532,3.51077
2,1,Potentiostatic EIS,73.7726,3.51097,-0.00286306,9999.98,0.0469867,58.2545,0.0247219,-0.0399572,3.39312,0.21326,0.0100204,307,0.0307001,3.51097
2,1,Potentiostatic EIS,73.9843,3.51096,-0.00338898,8912.5,0.043366,55.8049,0.0243722,-0.0358692,3.76722,0.238256,0.0103322,273,0.0306311,3.51096
2,1,Potentiostatic EIS,74.1962,3.51095,-0.003768,7943.27,0.0401335,53.4691,0.0238897,-0.0322487,4.14125,0.263675,0.0105822,244,0.0307178,3.51095
2,1,Potentiostatic EIS,74.4089,3.51097,-0.00310825,7079.45,0.0368921,51.3201,0.0230564,-0.0287998,4.49055,0.286095,0.0105547,217,0.0306521,3.51097
2,1,Potentiostatic EIS,74.6236,3.51097,-0.00299971,6309.57,0.033818,47.5233,0.022837,-0.0249426,4.77515,0.310892,0.0105137,193,0.0305885,3.51097
2,1,Potentiostatic EIS,74.8351,3.51099,-0.00220644,5623.41,0.0317521,43.6652,0.0229691,-0.021923,4.89766,0.327237,0.0103905,172,0.0305864,3.51099
2,1,Potentiostatic EIS,75.0461,3.51101,-0.00211384,5011.87,0.0302104,39.9383,0.0231634,-0.0193939,4.89363,0.341701,0.0103229,153,0.0305276,3.51101
2,1,Potentiostatic EIS,75.2557,3.511,-0.00244761,4466.83,0.0288841,36.5372,0.0232075,-0.017196,4.82954,0.355054,0.0102554,137,0.0306705,3.511
2,1,Potentiostatic EIS,75.4662,3.51102,-0.00200972,3981.07,0.0277985,33.2314,0.0232525,-0.0152342,4.70301,0.367349,0.0102117,122,0.0306451,3.51102
2,1,Potentiostatic EIS,75.6775,3.51104,-0.00122947,3548.13,0.026848,30.057,0.0232377,-0.0134471,4.56465,0.377008,0.0101219,108,0.0304386,3.51104
2,1,Potentiostatic EIS,75.8447,3.51105,-0.000915167,3162.27,0.0260992,27.0332,0.0232477,-0.0118623,4.3922,0.351247,0.00916727,97,0.0306742,3.51105
2,1,Potentiostatic EIS,76.0116,3.51105,-0.000984131,2818.38,0.0254892,24.1217,0.0232635,-0.0104168,4.21715,0.395202,0.0100734,86,0.030514,3.51105
2,1,Potentiostatic EIS,76.1796,3.51106,-0.00106109,2511.88,0.0250191,21.3646,0.0232998,-0.00911451,3.89811,0.418237,0.0104639,77,0.0306543,3.51106
2,1,Potentiostatic EIS,76.3484,3.51103,-0.00170031,2238.72,0.0246438,18.7654,0.0233338,-0.00792775,3.70392,0.421702,0.0103923,68,0.0303745,3.51103
2,1,Potentiostatic EIS,76.5149,3.51106,-0.00113207,1995.26,0.0243557,16.3338,0.0233727,-0.00684962,3.44126,0.42158,0.0102679,61,0.0305725,3.51106
2,1,Potentiostatic EIS,76.6816,3.51108,-0.000442003,1778.28,0.0241451,14.0978,0.0234179,-0.00588122,3.15183,0.422002,0.0101893,54,0.0303664,3.51108
2,1,Potentiostatic EIS,76.8518,3.51109,-0.000221188,1584.89,0.0240301,12.0106,0.0235041,-0.0050005,3.09252,0.421336,0.0101248,48,0.030286,3.51109
2,1,Potentiostatic EIS,76.9751,3.51109,-0.000470023,1412.53,0.0239706,10.1153,0.023598,-0.00420996,2.92267,0.367141,0.00880059,43,0.0304417,3.51109
2,1,Potentiostatic EIS,77.0991,3.51108,-0.000514129,1258.92,0.0239497,8.38435,0.0236937,-0.00349217,2.84852,0.387551,0.00928174,38,0.0301845,3.51108
2,1,Potentiostatic EIS,77.2224,3.51108,-0.000327075,1122.02,0.02395,6.80129,0.0237814,-0.00283631,2.58683,0.427537,0.0102395,34,0.0303026,3.51108
2,1,Potentiostatic EIS,77.3452,3.51109,-0.000443353,999.999,0.02401,5.32842,0.0239063,-0.00222968,2.4718,0.428953,0.0102992,30,0.03,3.51109
2,1,Potentiostatic EIS,77.4684,3.51106,-0.00111292,891.25,0.0241006,4.0316,0.024041,-0.00169444,2.33178,0.423935,0.0102171,27,0.0302945,3.51106
2,1,Potentiostatic EIS,77.5926,3.51109,-0.000243972,794.328,0.0242112,2.84145,0.0241814,-0.00120021,2.22574,0.419815,0.0101642,24,0.0302142,3.51109
2,1,Potentiostatic EIS,77.7154,3.51111,0.000682683,707.945,0.0243461,1.71862,0.0243351,-0.000730163,2.13422,0.415441,0.0101144,21,0.0296633,3.51111
2,1,Potentiostatic EIS,77.8397,3.51111,0.000371663,630.956,0.0245107,0.778333,0.0245084,-0.000332954,2.07819,0.411447,0.0100848,19,0.030113,3.51111
2,1,Potentiostatic EIS,77.9624,3.51109,0.000186985,562.34,0.0246846,-0.0992729,0.0246845,4.27694e-05,2.02691,0.408117,0.0100742,17,0.0302308,3.51109
2,1,Potentiostatic EIS,78.086,3.51109,7.02289e-05,501.185,0.0248753,-0.892716,0.0248723,0.000387563,1.94886,0.4039,0.0100472,15,0.029929,3.51109
2,1,Potentiostatic EIS,78.2081,3.51109,0.000128097,446.683,0.0250748,-1.58843,0.0250651,0.000695066,1.89215,0.400014,0.0100303,13,0.0291034,3.51109
2,1,Potentiostatic EIS,78.2865,3.51111,0.000392361,398.107,0.0253288,-2.20458,0.0253101,0.00097434,1.91646,0.340364,0.00862102,12,0.0301427,3.51111
2,1,Potentiostatic EIS,78.3657,3.5111,0.000433613,354.813,0.0255169,-2.73813,0.0254878,0.00121897,1.84387,0.348514,0.00889301,10,0.0281839,3.5111
2,1,Potentiostatic EIS,78.444,3.5111,0.000329746,316.227,0.0257824,-3.25403,0.0257408,0.00146348,1.77481,0.354194,0.00913196,9,0.0284606,3.5111
2,1,Potentiostatic EIS,78.5221,3.5111,0.000463722,281.838,0.0260198,-3.63184,0.0259676,0.00164823,1.69949,0.357888,0.00931218,8,0.0283851,3.5111
2,1,Potentiostatic EIS,78.6029,3.51111,0.000521418,251.188,0.0262859,-3.98961,0.0262222,0.00182885,1.59216,0.359891,0.00946005,8,0.0318487,3.51111
2,1,Potentiostatic EIS,78.6873,3.51113,0.000765301,223.872,0.0265485,-4.313,0.0264733,0.00199658,1.52432,0.360575,0.00957273,8,0.0357347,3.51113
2,1,Potentiostatic EIS,78.7756,3.51112,0.000642059,199.526,0.0268083,-4.52184,0.0267249,0.00211354,1.43273,0.360448,0.00966299,8,0.0400951,3.51112
2,1,Potentiostatic EIS,78.8699,3.51111,0.000732507,177.828,0.0270654,-4.72612,0.0269734,0.00222999,1.30863,0.359318,0.00972508,8,0.0449874,3.51111
2,1,Potentiostatic EIS,78.9695,3.51111,0.000547211,158.489,0.0273258,-4.84416,0.0272282,0.00230755,1.23208,0.357696,0.00977434,8,0.0504767,3.51111
2,1,Potentiostatic EIS,79.0763,3.51111,0.000642462,141.253,0.0276068,-4.96536,0.0275032,0.00238946,1.13855,0.355623,0.00981761,8,0.0566359,3.51111
2,1,Potentiostatic EIS,79.1896,3.51111,0.00034449,125.892,0.027859,-5.02115,0.027752,0.00243831,1.06619,0.353258,0.00984139,8,0.0635464,3.51111
2,1,Potentiostatic EIS,79.3094,3.51111,0.000348619,112.201,0.0281187,-5.05229,0.0280095,0.00247627,0.981189,0.350504,0.00985573,8,0.0713003,3.51111
2,1,Potentiostatic EIS,79.4405,3.51111,0.000474594,99.9997,0.0283754,-5.04733,0.0282654,0.00249643,0.891246,0.347833,0.00986991,8,0.0800003,3.51111
2,1,Potentiostatic EIS,79.5805,3.51111,0.000508814,89.1248,0.0286349,-5.01563,0.0285253,0.00250348,0.81268,0.34513,0.00988278,8,0.0897617,3.51111
2,1,Potentiostatic EIS,79.7324,3.51112,0.00071412,79.4325,0.0288777,-4.94349,0.0287702,0.00248848,0.750167,0.342442,0.00988893,8,0.100714,3.51112
2,1,Potentiostatic EIS,79.8962,3.51112,0.000788303,70.7943,0.0291207,-4.8344,0.0290171,0.00245418,0.651454,0.33969,0.009892,8,0.113003,3.51112
2,1,Potentiostatic EIS,80.0749,3.51112,0.00087339,63.0956,0.0293367,-4.73627,0.0292365,0.00242231,0.595423,0.337227,0.00989313,8,0.126792,3.51112
2,1,Potentiostatic EIS,80.271,3.51112,0.000799789,56.2341,0.029555,-4.62156,0.0294589,0.00238137,0.526453,0.328874,0.00971988,8,0.142263,3.51112
2,1,Potentiostatic EIS,80.4849,3.51113,0.000615657,50.1186,0.0297637,-4.46886,0.0296732,0.00231911,0.471691,0.327204,0.0097388,8,0.159621,3.51113
2,1,Potentiostatic EIS,80.7199,3.51113,0.000679272,44.6682,0.029962,-4.29668,0.0298778,0.00224478,0.426024,0.32565,0.00975713,8,0.179098,3.51113
2,1,Potentiostatic EIS,80.9779,3.51111,0.000326514,39.8106,0.0301416,-4.11209,0.030064,0.00216139,0.379806,0.324079,0.00976826,8,0.200952,3.51111
2,1,Potentiostatic EIS,81.2613,3.51113,0.000937485,35.4812,0.0303127,-3.9491,0.0302408,0.00208764,0.355078,0.322763,0.00978382,8,0.225471,3.51113
2,1,Potentiostatic EIS,81.4035,3.51111,9.56461e-05,31.6227,0.0304848,-3.78977,0.0304182,0.00201492,0.349507,0.324727,0.00989933,2,0.0632458,3.51111
2,1,Potentiostatic EIS,81.5492,3.51111,0.000186844,28.1838,0.0306387,-3.57132,0.0305792,0.00190852,0.319245,0.32341,0.00990888,2,0.0709628,3.51111
2,1,Potentiostatic EIS,81.712,3.51113,0.000573518,25.1188,0.0307691,-3.4126,0.0307145,0.00183155,0.287457,0.31366,0.009651,2,0.0796217,3.51113
2,1,Potentiostatic EIS,81.8929,3.51112,0.000466913,22.3871,0.0309071,-3.20507,0.0308587,0.00172801,0.297499,0.313523,0.00968999,2,0.0893371,3.51112
2,1,Potentiostatic EIS,82.0928,3.51112,0.000471098,19.9525,0.0310045,-3.06309,0.0309602,0.00165674,0.250139,0.314359,0.00974651,2,0.100238,3.51112
2,1,Potentiostatic EIS,82.3151,3.51111,9.35722e-05,17.7828,0.0311083,-2.88345,0.0310689,0.00156489,0.259006,0.314387,0.00978009,2,0.112468,3.51111
2,1,Potentiostatic EIS,82.5623,3.51111,7.18374e-05,15.8489,0.0312229,-2.73043,0.0311874,0.00148736,0.213889,0.314522,0.00982034,2,0.126192,3.51111
2,1,Potentiostatic EIS,82.8378,3.51112,0.00044551,14.1253,0.0313,-2.58874,0.031268,0.00141372,0.23131,0.314377,0.00984003,2,0.14159,3.51112
2,1,Potentiostatic EIS,83.1446,3.51111,0.00012397,12.5892,0.0313766,-2.45572,0.0313478,0.0013444,0.195488,0.314335,0.00986277,2,0.158866,3.51111
2,1,Potentiostatic EIS,83.4869,3.5111,-0.000236444,11.2201,0.0314751,-2.31477,0.0314494,0.00127126,0.205198,0.313696,0.00987362,2,0.178251,3.5111
2,1,Potentiostatic EIS,83.8683,3.51111,4.2802e-05,9.99996,0.0315332,-2.17785,0.0315104,0.00119831,0.21106,0.313839,0.00989633,2,0.200001,3.51111
2,1,Potentiostatic EIS,84.2945,3.5111,-0.000427468,8.91248,0.0315995,-2.09408,0.0315784,0.00115466,0.208814,0.313266,0.00989908,2,0.224404,3.5111
2,1,Potentiostatic EIS,84.77,3.51111,-0.000168078,7.94325,0.0316646,-1.97765,0.0316458,0.00109273,0.203737,0.312969,0.00991006,2,0.251786,3.51111
2,1,Potentiostatic EIS,85.3019,3.51111,-0.000148406,7.07944,0.0317227,-1.89208,0.0317054,0.00104739,0.207976,0.312528,0.00991423,2,0.282508,3.51111
2,1,Potentiostatic EIS,85.8966,3.5111,-0.000251054,6.30955,0.0317746,-1.80701,0.0317588,0.00100195,0.211559,0.312113,0.00991726,2,0.31698,3.5111
2,1,Potentiostatic EIS,86.5612,3.51111,-0.000513072,5.62339,0.031819,-1.74593,0.0318042,0.000969448,0.198497,0.311843,0.00992253,2,0.355657,3.51111
2,1,Potentiostatic EIS,87.3048,3.51111,-0.000568705,5.01185,0.0318644,-1.68047,0.0318507,0.00093444,0.187376,0.31163,0.0099299,2,0.399054,3.51111
2,1,Potentiostatic EIS,88.1373,3.51111,-0.000314683,4.46682,0.0319082,-1.62593,0.0318953,0.000905367,0.177208,0.311083,0.00992611,2,0.447745,3.51111
2,1,Potentiostatic EIS,89.0687,3.51111,-0.000540171,3.98106,0.0319592,-1.56826,0.0319472,0.000874653,0.205174,0.31083,0.00993386,2,0.502378,3.51111
2,1,Potentiostatic EIS,90.1109,3.5111,-0.000735802,3.54812,0.0319955,-1.56645,0.0319836,0.000874637,0.196879,0.310531,0.00993562,2,0.563679,3.5111
2,1,Potentiostatic EIS,91.2755,3.5111,-0.000668848,3.16227,0.032041,-1.48989,0.0320302,0.000833084,0.192478,0.310333,0.00994343,2,0.632458,3.5111
2,1,Potentiostatic EIS,92.5809,3.5111,-0.000747063,2.81837,0.0320757,-1.49685,0.0320648,0.000837882,0.204434,0.309947,0.00994178,2,0.70963,3.5111
2,1,Potentiostatic EIS,94.0435,3.51111,-0.000845454,2.51188,0.0321166,-1.48089,0.0321059,0.000830004,0.214581,0.309392,0.00993661,2,0.796217,3.51111
2,1,Potentiostatic EIS,95.683,3.51111,-0.000983733,2.23872,0.0321556,-1.46793,0.0321451,0.000823742,0.196239,0.309226,0.00994334,2,0.893369,3.51111
2,1,Potentiostatic EIS,97.5205,3.51111,-0.000988571,1.99526,0.0321776,-1.4767,0.032167,0.000829232,0.205185,0.308784,0.00993595,2,1.00238,3.51111
2,1,Potentiostatic EIS,99.581,3.51111,-0.00125415,1.77827,0.0322326,-1.4722,0.032222,0.00082812,0.184055,0.308298,0.00993728,2,1.12469,3.51111
2,1,Potentiostatic EIS,101.89,3.51111,-0.00114283,1.58489,0.0322602,-1.49466,0.0322492,0.000841469,0.198906,0.308111,0.0099397,2,1.26192,3.51111
2,1,Potentiostatic EIS,104.48,3.51111,-0.00109847,1.41253,0.0323011,-1.51452,0.0322899,0.000853726,0.195051,0.307762,0.00994105,2,1.4159,3.51111
2,1,Potentiostatic EIS,107.384,3.5111,-0.00130884,1.25892,0.032339,-1.52941,0.0323275,0.000863131,0.178327,0.307204,0.00993465,2,1.58866,3.5111
2,1,Potentiostatic EIS,110.641,3.5111,-0.00115408,1.12202,0.0323719,-1.55222,0.03236,0.000876892,0.185402,0.307024,0.00993895,2,1.78251,3.5111
2,1,Potentiostatic EIS,114.292,3.51111,-0.00101849,0.999995,0.0324361,-1.60705,0.0324233,0.00090966,0.189296,0.306578,0.0099442,2,2.00001,3.51111
2,1,Potentiostatic EIS,118.389,3.51111,-0.00129241,0.891248,0.0324584,-1.64797,0.032445,0.000933455,0.181482,0.306379,0.00994459,2,2.24404,3.51111
2,1,Potentiostatic EIS,122.983,3.51111,-0.00105046,0.794324,0.0325123,-1.69894,0.032498,0.000963914,0.186298,0.305822,0.00994295,2,2.51786,3.51111
2,1,Potentiostatic EIS,128.137,3.51111,-0.00121579,0.707944,0.0325637,-1.74836,0.0325486,0.000993519,0.207435,0.30559,0.00995116,2,2.82508,3.51111
2,1,Potentiostatic EIS,133.917,3.5111,-0.00132488,0.630955,0.0326011,-1.84263,0.0325843,0.00104827,0.209234,0.304913,0.0099405,2,3.1698,3.5111
2,1,Potentiostatic EIS,140.403,3.5111,-0.000828389,0.562339,0.0326611,-1.91606,0.0326429,0.00109204,0.160717,0.304566,0.00994745,2,3.55657,3.5111
2,1,Potentiostatic EIS,147.677,3.5111,-0.000923778,0.501186,0.0327095,-2.03018,0.032689,0.00115876,0.228198,0.304078,0.00994624,2,3.99054,3.5111
2,1,Potentiostatic EIS,155.838,3.5111,-0.000955295,0.446681,0.0327476,-2.11989,0.0327251,0.00121135,0.185068,0.303599,0.00994211,2,4.47747,3.5111
2,1,Potentiostatic EIS,164.993,3.51109,-0.000725691,0.398106,0.0328109,-2.21634,0.0327863,0.00126889,0.169949,0.303077,0.00994422,2,5.02379,3.51109
2,1,Potentiostatic EIS,175.262,3.5111,-0.000932194,0.354812,0.0328742,-2.32848,0.0328471,0.00133563,0.195543,0.302462,0.00994321,2,5.63679,3.5111
2,1,Potentiostatic EIS,186.778,3.5111,-0.000798568,0.316226,0.0329371,-2.45204,0.0329069,0.00140915,0.182126,0.301949,0.00994532,2,6.32458,3.5111
2,1,Potentiostatic EIS,199.698,3.51109,-0.00042854,0.281837,0.0330064,-2.58724,0.0329728,0.00148992,0.173335,0.301301,0.00994489,2,7.09631,3.51109
2,1,Potentiostatic EIS,214.193,3.5111,-0.000743802,0.251188,0.0330762,-2.71842,0.0330389,0.00156872,0.168006,0.300614,0.00994315,2,7.96218,3.5111
2,1,Potentiostatic EIS,230.456,3.51109,-0.00054726,0.223871,0.0331655,-2.89256,0.0331233,0.00167364,0.188819,0.299986,0.0099492,2,8.9337,3.51109
2,1,Potentiostatic EIS,248.7,3.5111,-0.000126293,0.199525,0.0332409,-3.04922,0.0331939,0.00176821,0.178219,0.299202,0.00994574,2,10.0238,3.5111
2,1,Potentiostatic EIS,269.167,3.5111,-0.000625409,0.177827,0.0333312,-3.21111,0.0332789,0.00186705,0.193597,0.29842,0.0099467,2,11.2469,3.5111
2,1,Potentiostatic EIS,292.138,3.5111,-0.000115501,0.158489,0.0334291,-3.43442,0.033369,0.0020026,0.18515,0.297536,0.00994632,2,12.6192,3.5111
2,1,Potentiostatic EIS,317.903,3.51111,-0.000176602,0.141253,0.0335179,-3.61322,0.0334513,0.00211232,0.191208,0.296758,0.0099467,2,14.159,3.51111
2,1,Potentiostatic EIS,346.815,3.51111,-0.00055997,0.125892,0.0336171,-3.84205,0.0335415,0.00225255,0.194386,0.295901,0.0099473,2,15.8867,3.51111
2,1,Potentiostatic EIS,379.248,3.5111,-1.40397e-05,0.112201,0.0337282,-4.05644,0.0336437,0.0023859,0.176154,0.294965,0.0099486,2,17.8251,3.5111
2,1,Potentiostatic EIS,415.639,3.51109,-0.00038607,0.0999997,0.0338495,-4.33399,0.0337527,0.00255802,0.185379,0.293907,0.00994861,2,20.0001,3.51109
2,1,Potentiostatic EIS,456.468,3.51109,-0.000468229,0.0891246,0.0339657,-4.61804,0.0338555,0.00273468,0.17376,0.292873,0.00994764,2,22.4405,3.51109
2,1,Potentiostatic EIS,502.268,3.51109,0.000101158,0.0794325,0.0341197,-4.92913,0.0339935,0.00293169,0.173078,0.291639,0.00995061,2,25.1786,3.51109
2,1,Potentiostatic EIS,553.667,3.51109,-0.000576079,0.0707942,0.0342662,-5.23514,0.0341233,0.00312656,0.160178,0.290358,0.00994947,2,28.2509,3.51109
2,1,Potentiostatic EIS,611.325,3.5111,-0.000157452,0.0630955,0.03441,-5.56462,0.0342479,0.00333668,0.16146,0.289217,0.00995197,2,31.698,3.5111
2,1,Potentiostatic EIS,676.014,3.5111,0.00017238,0.0562339,0.0345639,-5.97464,0.0343762,0.0035977,0.153167,0.287987,0.00995394,2,35.5657,3.5111
2,1,Potentiostatic EIS,748.596,3.51109,-0.000570381,0.0501185,0.0347468,-6.37086,0.0345323,0.00385563,0.144375,0.28617,0.00994348,2,39.9054,3.51109
2,1,Potentiostatic EIS,821.348,3.5111,-0.000158726,0.05,0.034751,-6.40069,0.0345344,0.00387407,0.179887,0.286475,0.00995529,2,40,3.5111