File: Data/P190_03/EIS_04_P190_03_4/2_EIS_04_P190_03_4 20230912 113836.csv
Step number,Repeats,Step name,Elapsed Time  (s),DC Working Electrode (V),DC Current (A),Frequency (Hz),|Z| (Ohms),Phase (deg),Z' (Ohms),-Z" (Ohms),THD (%),Amplitude (A),Amplitude (V),No of Cycles,Duration of Each Frequency (s),IR Compensated DC Working Electrode (V)
2,1,Potentiostatic EIS,0,3.51075,-0.0128354,1000000,1.99615,87.0763,0.101817,-1.99355,0.85253,0.00503016,0.0100408,1430,0.00143,3.51075
2,1,Potentiostatic EIS,0.249374,3.51066,-0.0148206,794328,1.6022,86.6024,0.0949531,-1.59938,1.1049,0.00624678,0.0100086,1445,0.00181915,3.51066
2,1,Potentiostatic EIS,0.503903,3.5106,-0.0161128,630957.375,1.27983,86.1,0.0870488,-1.27686,1.10101,0.00778603,0.00996476,1355,0.00214753,3.5106
2,1,Potentiostatic EIS,0.768124,3.51054,-0.0175603,501187.25,1.02478,85.9592,0.0722123,-1.02223,1.14725,0.00972392,0.00996495,1385,0.00276344,3.51054
2,1,Potentiostatic EIS,1.0463,3.51046,-0.0191467,398107,0.820641,84.8633,0.0734742,-0.817345,1.12463,0.0118579,0.00973106,1400,0.00351664,3.51046
2,1,Potentiostatic EIS,1.37432,3.5104,-0.0206619,316228,0.654463,84.2865,0.065154,-0.651212,1.20795,0.0151848,0.00993787,1370,0.00433232,3.5104
2,1,Potentiostatic EIS,1.73791,3.51032,-0.0221841,251189,0.527774,83.271,0.0618409,-0.524139,1.36464,0.0188853,0.00996719,1340,0.00533464,3.51032
2,1,Potentiostatic EIS,2.28648,3.51019,-0.0250811,199526,0.422165,82.7223,0.0534796,-0.418764,1.60693,0.0235516,0.00994268,1355,0.00679109,3.51019
2,1,Potentiostatic EIS,2.75115,3.5101,-0.0267733,158489,0.340053,81.4009,0.0508446,-0.33623,1.75985,0.0287732,0.00978447,1360,0.00858102,3.5101
2,1,Potentiostatic EIS,3.32495,3.50997,-0.0296915,125893,0.275189,80.1866,0.046903,-0.271162,1.95007,0.0363013,0.00998974,1370,0.0108823,3.50997
2,1,Potentiostatic EIS,3.99482,3.50988,-0.0315208,100000,0.221211,78.7121,0.0432995,-0.216932,1.95788,0.0450172,0.00995831,1370,0.0137,3.50988
2,1,Potentiostatic EIS,4.72564,3.50975,-0.0339535,79432.8,0.179061,76.7459,0.0410533,-0.174291,2.64884,0.0558058,0.00999267,1365,0.0171843,3.50975
2,1,Potentiostatic EIS,5.11212,3.5104,-0.0183494,63095.7,0.144734,74.7266,0.0381266,-0.139622,3.97241,0.0689318,0.00997682,1290,0.0204451,3.5104
2,1,Potentiostatic EIS,5.34356,3.51038,-0.0186443,50118.75,0.117641,72.1185,0.0361218,-0.111959,4.78127,0.0850817,0.0100094,1025,0.0204514,3.51038
2,1,Potentiostatic EIS,5.57479,3.51038,-0.0185505,39810.7,0.096467,68.796,0.0348912,-0.089936,5.19167,0.104186,0.0100506,815,0.0204719,3.51038
2,1,Potentiostatic EIS,5.80699,3.5104,-0.0182076,31622.8,0.0798431,64.6438,0.0341924,-0.0721512,5.76619,0.126426,0.0100944,645,0.0203967,3.5104
2,1,Potentiostatic EIS,6.03798,3.51073,-0.0101401,25118.9,0.0667392,60.2528,0.0331143,-0.0579445,6.16503,0.151675,0.0101225,510,0.0203034,3.51073
2,1,Potentiostatic EIS,6.27119,3.51079,-0.00854413,19952.6,0.056458,55.0841,0.0323151,-0.0462951,6.3787,0.179137,0.0101136,405,0.0202981,3.51079
2,1,Potentiostatic EIS,6.50502,3.51083,-0.00735721,15848.9,0.0484069,49.4253,0.0314858,-0.0367679,6.44621,0.207121,0.0100263,320,0.0201906,3.51083
2,1,Potentiostatic EIS,6.73644,3.51088,-0.00636125,12589.2,0.0428773,43.3043,0.0312027,-0.0294084,6.12021,0.233295,0.0100031,255,0.0202554,3.51088
2,1,Potentiostatic EIS,7.04785,3.51109,-0.00576632,9999.98,0.0388842,37.4237,0.0308804,-0.0236301,2.74315,0.256697,0.00998144,307,0.0307001,3.51109
2,1,Potentiostatic EIS,7.25737,3.51111,-0.00566285,7943.27,0.0358814,32.1595,0.0303761,-0.0190989,3.2045,0.286348,0.0102746,244,0.0307178,3.51111
2,1,Potentiostatic EIS,7.46719,3.51113,-0.00500728,6309.57,0.0328313,26.119,0.0294786,-0.0144535,3.56116,0.319937,0.0105039,193,0.0305885,3.51113
2,1,Potentiostatic EIS,7.67887,3.51118,-0.00381119,5011.87,0.0318815,19.9367,0.0299708,-0.010871,3.57435,0.321665,0.0102551,153,0.0305276,3.51118
2,1,Potentiostatic EIS,7.8474,3.5112,-0.00321287,3981.07,0.0313851,15.4025,0.0302579,-0.00833585,3.51444,0.287565,0.00902527,122,0.0306451,3.5112
2,1,Potentiostatic EIS,8.01433,3.51119,-0.00367981,3162.27,0.0310576,11.6972,0.0304126,-0.00629659,3.20286,0.338845,0.0105237,97,0.0306742,3.51119
2,1,Potentiostatic EIS,8.18191,3.51121,-0.00309295,2511.88,0.0308649,8.57129,0.0305202,-0.0046001,3.15481,0.33369,0.0102993,77,0.0306543,3.51121
2,1,Potentiostatic EIS,8.34992,3.51124,-0.00238632,1995.26,0.0308591,5.92264,0.0306943,-0.00318421,2.89359,0.327939,0.0101199,61,0.0305725,3.51124
2,1,Potentiostatic EIS,8.47365,3.51122,-0.0025366,1584.89,0.0309949,3.72052,0.0309296,-0.00201125,2.64399,0.326416,0.0101173,48,0.030286,3.51122
2,1,Potentiostatic EIS,8.59822,3.51124,-0.00238595,1258.92,0.0311628,1.96187,0.0311445,-0.00106684,2.60905,0.331326,0.010325,38,0.0301845,3.51124
2,1,Potentiostatic EIS,8.72195,3.51125,-0.00200306,999.999,0.0314359,0.46065,0.0314349,-0.000252737,2.4324,0.323746,0.0101773,30,0.03,3.51125
2,1,Potentiostatic EIS,8.84595,3.51125,-0.00227377,794.328,0.0317596,-0.802821,0.0317565,0.000444997,2.3294,0.317052,0.0100695,24,0.0302142,3.51125
2,1,Potentiostatic EIS,8.96929,3.51127,-0.00197108,630.956,0.0321592,-1.77358,0.0321438,0.000995321,2.23448,0.312085,0.0100364,19,0.030113,3.51127
2,1,Potentiostatic EIS,9.04836,3.51126,-0.00200789,501.187,0.0325927,-2.6251,0.0325585,0.00149276,2.14694,0.260736,0.00849807,15,0.029929,3.51126
2,1,Potentiostatic EIS,9.12701,3.51126,-0.00186711,398.107,0.0330855,-3.28195,0.0330312,0.00189413,1.96109,0.273246,0.00904047,12,0.0301427,3.51126
2,1,Potentiostatic EIS,9.20733,3.51126,-0.00190206,316.228,0.0335618,-3.78971,0.0334885,0.00221826,1.77442,0.279936,0.00939518,9,0.0284605,3.51126
2,1,Potentiostatic EIS,9.2872,3.51126,-0.00172905,251.189,0.0340843,-4.14327,0.0339953,0.00246262,1.5597,0.282198,0.00961854,8,0.0318486,3.51126
2,1,Potentiostatic EIS,9.37575,3.51127,-0.00167709,199.526,0.0346403,-4.32755,0.0345415,0.00261389,1.36044,0.281723,0.00975898,8,0.0400951,3.51127
2,1,Potentiostatic EIS,9.475,3.51127,-0.00156436,158.489,0.035178,-4.4698,0.035071,0.00274155,1.12854,0.279654,0.00983767,8,0.0504766,3.51127
2,1,Potentiostatic EIS,9.58666,3.51127,-0.00164547,125.892,0.0356955,-4.50014,0.0355855,0.00280073,0.956156,0.276781,0.00987983,8,0.0635464,3.51127
2,1,Potentiostatic EIS,9.71534,3.51127,-0.0016778,100,0.0362359,-4.45205,0.0361265,0.0028128,0.779409,0.273359,0.0099054,8,0.08,3.51127
2,1,Potentiostatic EIS,9.86714,3.51126,-0.00178991,79.4327,0.0367488,-4.32968,0.0366439,0.00277436,0.628013,0.269908,0.0099188,8,0.100714,3.51126
2,1,Potentiostatic EIS,10.0448,3.51126,-0.00177845,63.0956,0.0372186,-4.16797,0.0371201,0.00270507,0.531002,0.266582,0.00992179,8,0.126792,3.51126
2,1,Potentiostatic EIS,10.2582,3.51127,-0.00136243,50.1186,0.0376702,-3.9633,0.0375801,0.00260367,0.403899,0.257223,0.00968962,8,0.159621,3.51127
2,1,Potentiostatic EIS,10.5158,3.51127,-0.0017523,39.8107,0.0380804,-3.69541,0.0380012,0.00245437,0.322948,0.255767,0.00973973,8,0.200951,3.51127
2,1,Potentiostatic EIS,10.6599,3.51128,-0.00202933,31.6228,0.0384313,-3.44314,0.038362,0.00230811,0.289113,0.257243,0.00988629,2,0.0632456,3.51128
2,1,Potentiostatic EIS,10.8229,3.51127,-0.00190365,25.1188,0.0387804,-3.13586,0.0387223,0.00212143,0.271342,0.248804,0.00964873,2,0.0796217,3.51127
2,1,Potentiostatic EIS,11.0231,3.51127,-0.00192507,19.9526,0.0391054,-2.84666,0.0390571,0.0019421,0.235111,0.249604,0.00976091,2,0.100238,3.51127
2,1,Potentiostatic EIS,11.2703,3.51126,-0.00201885,15.8489,0.0393359,-2.59339,0.0392956,0.00177986,0.230886,0.249698,0.00982209,2,0.126192,3.51126
2,1,Potentiostatic EIS,11.5769,3.51127,-0.00175641,12.5892,0.0395639,-2.31352,0.0395316,0.0015971,0.209145,0.24959,0.00987481,2,0.158866,3.51127
2,1,Potentiostatic EIS,11.9583,3.51126,-0.00213746,9.99998,0.0397414,-2.10912,0.0397145,0.00146259,0.184534,0.249144,0.00990132,2,0.2,3.51126
2,1,Potentiostatic EIS,12.4332,3.51127,-0.00205666,7.94328,0.0399027,-1.91223,0.0398805,0.0013315,0.18331,0.248744,0.00992557,2,0.251785,3.51127
2,1,Potentiostatic EIS,13.0274,3.51127,-0.00222482,6.30957,0.0400257,-1.73875,0.0400072,0.00121447,0.184236,0.248069,0.00992912,2,0.316979,3.51127
2,1,Potentiostatic EIS,13.7678,3.51127,-0.00209974,5.01186,0.0401466,-1.60856,0.0401307,0.00112695,0.179493,0.247839,0.00994992,2,0.399053,3.51127
2,1,Potentiostatic EIS,14.6943,3.51127,-0.00211864,3.98106,0.0402542,-1.49668,0.0402405,0.0010514,0.188471,0.247245,0.00995267,2,0.502378,3.51127
2,1,Potentiostatic EIS,15.8585,3.51126,-0.00249031,3.16227,0.0403608,-1.42385,0.0403484,0.0010029,0.170276,0.246577,0.00995205,2,0.632458,3.51126
2,1,Potentiostatic EIS,17.321,3.51127,-0.00232571,2.51188,0.0404555,-1.37878,0.0404438,0.00097344,0.154279,0.246156,0.00995838,2,0.796216,3.51127
2,1,Potentiostatic EIS,19.1586,3.51126,-0.00236094,1.99526,0.0405473,-1.34729,0.040536,0.000953365,0.180029,0.245422,0.0099512,2,1.00238,3.51126
2,1,Potentiostatic EIS,21.4682,3.51128,-0.00245377,1.58489,0.040678,-1.34123,0.0406669,0.000952143,0.200804,0.244949,0.00996406,2,1.26192,3.51128
2,1,Potentiostatic EIS,24.3726,3.51127,-0.00246598,1.25892,0.0407753,-1.38078,0.0407634,0.000982555,0.182656,0.24421,0.00995771,2,1.58866,3.51127
2,1,Potentiostatic EIS,28.0248,3.51126,-0.00235393,0.999998,0.0408648,-1.40802,0.0408524,0.00100413,0.178478,0.243742,0.00996047,2,2,3.51126
2,1,Potentiostatic EIS,32.6191,3.51127,-0.00274294,0.794327,0.040889,-1.5032,0.040875,0.00107263,0.18588,0.243503,0.00995659,2,2.51785,3.51127
2,1,Potentiostatic EIS,38.3975,3.51127,-0.00244213,0.630956,0.0410372,-1.58589,0.0410215,0.00113572,0.159694,0.242789,0.0099634,2,3.16979,3.51127
2,1,Potentiostatic EIS,45.6719,3.51126,-0.00223956,0.501186,0.0412083,-1.72093,0.0411898,0.00123754,0.188667,0.241577,0.00995497,2,3.99054,3.51126
2,1,Potentiostatic EIS,54.8264,3.51126,-0.00251115,0.398106,0.0413093,-1.8714,0.0412873,0.00134901,0.181229,0.241041,0.00995723,2,5.02379,3.51126
2,1,Potentiostatic EIS,66.3431,3.51126,-0.00189558,0.316227,0.0414462,-2.0876,0.0414187,0.00150978,0.174179,0.240202,0.00995544,2,6.32457,3.51126
2,1,Potentiostatic EIS,80.8374,3.51124,-0.00176611,0.251188,0.041639,-2.30487,0.0416053,0.00167459,0.163017,0.239182,0.0099593,2,7.96216,3.51124
2,1,Potentiostatic EIS,99.0823,3.51125,-0.00199359,0.199526,0.0418425,-2.54956,0.0418011,0.0018613,0.173601,0.238068,0.00996139,2,10.0238,3.51125
2,1,Potentiostatic EIS,122.052,3.51126,-0.00103646,0.158489,0.042,-2.88856,0.0419466,0.00211653,0.201173,0.237031,0.0099553,2,12.6192,3.51126
2,1,Potentiostatic EIS,150.965,3.51126,-0.00113479,0.125892,0.0422038,-3.22127,0.0421372,0.00237152,0.17384,0.236191,0.00996813,2,15.8866,3.51126
2,1,Potentiostatic EIS,187.358,3.51124,-0.00137107,0.0999997,0.0423892,-3.61782,0.0423047,0.0026748,0.188483,0.234908,0.00995751,2,20.0001,3.51124