File: Data/P190/P190_04/EIS_06_P190_04_5/2_EIS_06_P190_04_5 20231012 115934.csv
Step number,Repeats,Step name,Elapsed Time  (s),DC Working Electrode (V),DC Current (A),Frequency (Hz),|Z| (Ohms),Phase (deg),Z' (Ohms),-Z" (Ohms),THD (%),Amplitude (A),Amplitude (V),No of Cycles,Duration of Each Frequency (s),IR Compensated DC Working Electrode (V)
2,1,Potentiostatic EIS,60.3005,3.49905,-0.0136292,1000000,3.27485,88.796,0.0688094,-3.27413,1.25046,0.00300184,0.00983001,1430,0.00143,3.49905
2,1,Potentiostatic EIS,60.5246,3.49903,-0.0144006,891251,2.92752,88.3834,0.0825897,-2.92635,1.07088,0.00335957,0.00983504,1310,0.00146984,3.49903
2,1,Potentiostatic EIS,60.7533,3.49901,-0.0145439,794328,2.62486,88.3098,0.0774198,-2.62372,1.26367,0.00376793,0.00989022,1445,0.00181915,3.49901
2,1,Potentiostatic EIS,60.9855,3.49899,-0.0148417,707946,2.3449,88.3133,0.069021,-2.34389,1.06661,0.00423743,0.00993626,1340,0.0018928,3.49899
2,1,Potentiostatic EIS,61.2232,3.49897,-0.0156641,630957.25,2.09551,87.8649,0.0780691,-2.09406,1.06825,0.00468685,0.00982131,1355,0.00214753,3.49897
2,1,Potentiostatic EIS,61.4671,3.49894,-0.0162873,562341.25,1.86859,87.8435,0.0703124,-1.86727,1.07237,0.00519911,0.00971545,1360,0.00241846,3.49894
2,1,Potentiostatic EIS,61.7375,3.49893,-0.0164021,501187,1.67087,87.9247,0.060508,-1.66977,1.16667,0.00595923,0.0099571,1385,0.00276344,3.49893
2,1,Potentiostatic EIS,62.0111,3.49891,-0.0165764,446684,1.49069,87.3084,0.0700032,-1.48905,1.25729,0.00667044,0.00994358,1360,0.00304466,3.49891
2,1,Potentiostatic EIS,62.2902,3.49889,-0.0173128,398107,1.33318,87.1585,0.0660904,-1.33154,1.11778,0.00747734,0.00996864,1400,0.00351664,3.49889
2,1,Potentiostatic EIS,62.5766,3.49888,-0.0175396,354813,1.18863,86.9057,0.0641627,-1.1869,1.22411,0.00835178,0.0099272,1365,0.00384709,3.49888
2,1,Potentiostatic EIS,62.8794,3.49882,-0.0181417,316228,1.0623,86.7487,0.0602489,-1.06059,1.21737,0.00936557,0.00994903,1370,0.00433232,3.49882
2,1,Potentiostatic EIS,63.1938,3.49881,-0.0187904,281838.25,0.952423,86.2933,0.0615734,-0.950431,1.33533,0.0104768,0.00997837,1370,0.00486094,3.49881
2,1,Potentiostatic EIS,63.68,3.4988,-0.0190216,251189,0.852901,85.9795,0.0597999,-0.850802,1.17129,0.0116958,0.00997542,1340,0.00533464,3.4988
2,1,Potentiostatic EIS,64.0375,3.49877,-0.020127,223872,0.760712,85.9235,0.0540772,-0.758788,1.19777,0.0129253,0.00983257,1360,0.0060749,3.49877
2,1,Potentiostatic EIS,64.4122,3.49873,-0.020358,199526,0.67868,85.7289,0.0505448,-0.676795,1.33347,0.0141868,0.009628,1355,0.00679109,3.49873
2,1,Potentiostatic EIS,64.8456,3.49871,-0.0209487,177828,0.609703,85.293,0.0500326,-0.607646,1.26766,0.0163299,0.00995647,1355,0.00761973,3.49871
2,1,Potentiostatic EIS,65.3061,3.49867,-0.0218745,158489,0.545883,84.8669,0.0488401,-0.543694,1.36699,0.0182474,0.00996096,1360,0.00858103,3.49867
2,1,Potentiostatic EIS,65.8012,3.49862,-0.0223662,141254,0.488196,84.8273,0.0440152,-0.486208,1.50129,0.0204382,0.00997787,1355,0.00959267,3.49862
2,1,Potentiostatic EIS,66.5604,3.49859,-0.0235033,125892,0.437636,84.2885,0.0435532,-0.435463,1.55996,0.0227709,0.00996536,1370,0.0108823,3.49859
2,1,Potentiostatic EIS,67.1279,3.49854,-0.024345,112202,0.391685,83.7583,0.0425854,-0.389363,1.57291,0.0254723,0.00997712,1360,0.012121,3.49854
2,1,Potentiostatic EIS,67.6978,3.49851,-0.0252207,99999.9,0.350163,83.3526,0.0405344,-0.347809,1.71636,0.0284572,0.00996473,1370,0.0137,3.49851
2,1,Potentiostatic EIS,68.3125,3.49845,-0.0263446,89125.1,0.314327,82.9194,0.0387457,-0.31193,1.6986,0.0318491,0.0100111,1365,0.0153156,3.49845
2,1,Potentiostatic EIS,68.9844,3.49845,-0.0264109,79432.8,0.281638,82.274,0.0378622,-0.279081,2.06004,0.0355158,0.0100026,1365,0.0171843,3.49845
2,1,Potentiostatic EIS,69.7127,3.49839,-0.0276885,70794.5,0.252331,81.6818,0.036505,-0.249677,1.87091,0.0395002,0.00996723,1370,0.0193518,3.49839
2,1,Potentiostatic EIS,69.954,3.49834,-0.0284182,63095.7,0.226044,81.2696,0.0343101,-0.223425,1.84992,0.0441696,0.00998436,1290,0.0204451,3.49834
2,1,Potentiostatic EIS,70.2082,3.49836,-0.0292621,56234.1,0.203081,80.459,0.0336613,-0.200272,1.93367,0.0492148,0.00999466,1150,0.0204502,3.49836
2,1,Potentiostatic EIS,70.4601,3.49829,-0.0297552,50118.7,0.181499,80.5905,0.0296732,-0.179057,1.88008,0.0545059,0.00989328,1025,0.0204515,3.49829
2,1,Potentiostatic EIS,70.8014,3.49829,-0.0298834,44668.3,0.162577,78.6328,0.0320432,-0.159388,1.91715,0.0604235,0.00982338,910,0.0203724,3.49829
2,1,Potentiostatic EIS,71.0359,3.49828,-0.0300286,39810.7,0.14603,77.8917,0.0306313,-0.142781,1.90157,0.0670234,0.0097873,815,0.0204719,3.49828
2,1,Potentiostatic EIS,71.3874,3.49867,-0.0184184,35481.3,0.131098,76.8911,0.0297332,-0.127681,4.15671,0.07432,0.0097436,725,0.0204333,3.49867
2,1,Potentiostatic EIS,71.6066,3.49879,-0.0153686,31622.8,0.11879,75.5632,0.0296159,-0.115039,5.04079,0.0845282,0.0100411,645,0.0203967,3.49879
2,1,Potentiostatic EIS,71.8283,3.49877,-0.0150208,28183.8,0.10596,74.6165,0.028109,-0.102164,5.28565,0.0940132,0.00996168,575,0.0204018,3.49877
2,1,Potentiostatic EIS,72.0485,3.4992,-0.00532833,25118.8,0.0962606,72.7818,0.0284943,-0.0919466,5.50846,0.104522,0.0100614,510,0.0203035,3.4992
2,1,Potentiostatic EIS,72.2693,3.49913,-0.00551564,22387.2,0.0860386,71.3595,0.0275004,-0.0815252,6.03605,0.115877,0.00996993,455,0.0203241,3.49913
2,1,Potentiostatic EIS,72.4912,3.49918,-0.00475632,19952.6,0.0784443,69.5362,0.0274254,-0.073494,6.28337,0.12829,0.0100636,405,0.0202981,3.49918
2,1,Potentiostatic EIS,72.7134,3.49925,-0.00407128,17782.8,0.0708829,67.815,0.0267653,-0.0656354,6.65556,0.14132,0.0100172,360,0.0202443,3.49925
2,1,Potentiostatic EIS,72.9175,3.49919,-0.00423009,15848.9,0.0640743,65.7549,0.0263115,-0.0584228,6.53728,0.151271,0.00969299,320,0.0201906,3.49919
2,1,Potentiostatic EIS,73.12,3.49924,-0.0040104,14125.4,0.0586298,63.3227,0.0263227,-0.0523887,6.93851,0.166735,0.0097755,285,0.0201765,3.49924
2,1,Potentiostatic EIS,73.3252,3.49922,-0.00373792,12589.2,0.0534,61.0922,0.0258136,-0.0467463,6.92362,0.183869,0.00981837,255,0.0202554,3.49922
2,1,Potentiostatic EIS,73.528,3.49926,-0.00383618,11220.2,0.049105,58.1991,0.0258768,-0.0417336,7.05429,0.199722,0.0098073,225,0.0200532,3.49926
2,1,Potentiostatic EIS,73.7871,3.49942,-0.00357259,9999.98,0.0452896,55.997,0.0253276,-0.0375454,3.33739,0.221913,0.0100503,307,0.0307001,3.49942
2,1,Potentiostatic EIS,73.9987,3.49943,-0.00389424,8912.5,0.0420035,53.3088,0.0250971,-0.0336812,3.6866,0.239038,0.0100404,273,0.0306311,3.49943
2,1,Potentiostatic EIS,74.2096,3.49942,-0.00386638,7943.27,0.0390649,50.9496,0.0246111,-0.0303375,4.03236,0.271811,0.0106183,244,0.0307178,3.49942
2,1,Potentiostatic EIS,74.4231,3.49943,-0.00410468,7079.45,0.0358795,48.3186,0.0238594,-0.0267967,4.37413,0.294649,0.0105719,217,0.0306521,3.49943
2,1,Potentiostatic EIS,74.6348,3.49945,-0.00313336,6309.57,0.0332238,44.1777,0.0238275,-0.0231532,4.6205,0.315783,0.0104915,193,0.0305885,3.49945
2,1,Potentiostatic EIS,74.8467,3.49946,-0.00330885,5623.41,0.0314624,40.2298,0.0240203,-0.0203201,4.68868,0.330808,0.010408,172,0.0305864,3.49946
2,1,Potentiostatic EIS,75.0576,3.49947,-0.00254122,5011.87,0.0301099,36.5607,0.0241851,-0.0179357,4.67429,0.342588,0.0103153,153,0.0305276,3.49947
2,1,Potentiostatic EIS,75.2687,3.49948,-0.00281808,4466.83,0.029041,33.0843,0.0243325,-0.0158526,4.56603,0.352511,0.0102373,137,0.0306705,3.49948
2,1,Potentiostatic EIS,75.48,3.49947,-0.00275692,3981.07,0.0281065,29.8875,0.0243685,-0.0140055,4.48063,0.361981,0.010174,122,0.0306451,3.49947
2,1,Potentiostatic EIS,75.6494,3.49952,-0.00153789,3548.13,0.0273369,26.8338,0.0243932,-0.01234,4.42228,0.312537,0.00854379,108,0.0304386,3.49952
2,1,Potentiostatic EIS,75.8164,3.49952,-0.00158921,3162.27,0.0267678,23.9166,0.0244694,-0.0108518,4.18765,0.352125,0.0094256,97,0.0306742,3.49952
2,1,Potentiostatic EIS,75.9835,3.49952,-0.00149689,2818.38,0.0262927,21.1268,0.0245255,-0.00947675,3.8688,0.395925,0.0104099,86,0.030514,3.49952
2,1,Potentiostatic EIS,76.1505,3.49952,-0.00173628,2511.88,0.0259036,18.6128,0.0245488,-0.00826767,3.60389,0.402457,0.0104251,77,0.0306543,3.49952
2,1,Potentiostatic EIS,76.318,3.49952,-0.00152914,2238.72,0.0256446,16.1413,0.0246337,-0.00712939,3.36427,0.402902,0.0103323,68,0.0303745,3.49952
2,1,Potentiostatic EIS,76.4845,3.49953,-0.00161921,1995.26,0.0254389,13.9297,0.0246908,-0.00612397,3.21224,0.402681,0.0102438,61,0.0305725,3.49953
2,1,Potentiostatic EIS,76.651,3.49955,-0.000752162,1778.28,0.0253122,11.8559,0.0247722,-0.00520044,3.07809,0.401638,0.0101664,54,0.0303664,3.49955
2,1,Potentiostatic EIS,76.8175,3.49955,-0.000754401,1584.89,0.0252389,9.98623,0.0248565,-0.00437671,2.89863,0.400233,0.0101014,48,0.030286,3.49955
2,1,Potentiostatic EIS,76.9419,3.49954,-0.00108739,1412.53,0.025218,8.241,0.0249576,-0.00361468,2.78156,0.364885,0.0092017,43,0.0304417,3.49954
2,1,Potentiostatic EIS,77.0656,3.49954,-0.000968086,1258.92,0.0252414,6.69069,0.0250695,-0.00294086,2.58325,0.384067,0.00969439,38,0.0301845,3.49954
2,1,Potentiostatic EIS,77.1884,3.49955,-0.000710248,1122.02,0.0253113,5.2815,0.0252038,-0.00232988,2.53608,0.40843,0.0103379,34,0.0303026,3.49955
2,1,Potentiostatic EIS,77.3114,3.49953,-0.00146559,999.999,0.0253992,3.93316,0.0253394,-0.0017422,2.36791,0.404241,0.0102674,30,0.03,3.49953
2,1,Potentiostatic EIS,77.4338,3.49956,-0.000685888,891.25,0.0255068,2.77614,0.0254768,-0.00123539,2.30895,0.399355,0.0101862,27,0.0302945,3.49956
2,1,Potentiostatic EIS,77.5561,3.49954,-0.000677875,794.328,0.0256494,1.71115,0.0256379,-0.00076591,2.17881,0.395289,0.0101389,24,0.0302142,3.49954
2,1,Potentiostatic EIS,77.6786,3.49958,7.00915e-05,707.945,0.0258166,0.752806,0.0258144,-0.000339193,2.09189,0.391752,0.0101137,21,0.0296633,3.49958
2,1,Potentiostatic EIS,77.8019,3.49957,-0.000367678,630.956,0.0259902,-0.12897,0.0259901,5.85028e-05,2.08207,0.38768,0.0100759,19,0.030113,3.49957
2,1,Potentiostatic EIS,77.9255,3.49957,-0.000381963,562.34,0.0261757,-0.889217,0.0261725,0.000406224,2.01774,0.383958,0.0100504,17,0.0302308,3.49957
2,1,Potentiostatic EIS,78.0485,3.49957,0.000103526,501.185,0.0263892,-1.62978,0.0263785,0.000750543,1.95967,0.380115,0.0100309,15,0.029929,3.49957
2,1,Potentiostatic EIS,78.1708,3.49956,-0.000339516,446.683,0.0266359,-2.25484,0.0266153,0.00104797,1.92022,0.376336,0.0100241,13,0.0291034,3.49956
2,1,Potentiostatic EIS,78.2503,3.49957,-0.000289839,398.107,0.0268669,-2.79662,0.0268349,0.00131086,1.91549,0.325311,0.00874011,12,0.0301427,3.49957
2,1,Potentiostatic EIS,78.3293,3.49957,-0.00015731,354.813,0.0271134,-3.29381,0.0270686,0.00155783,1.83148,0.332126,0.00900505,10,0.0281839,3.49957
2,1,Potentiostatic EIS,78.4077,3.49957,-0.000197984,316.227,0.0273479,-3.75916,0.0272891,0.001793,1.74572,0.33673,0.00920886,9,0.0284606,3.49957
2,1,Potentiostatic EIS,78.4856,3.49957,-0.00030379,281.838,0.0276197,-4.18812,0.027546,0.00201711,1.70777,0.339798,0.00938513,8,0.0283851,3.49957
2,1,Potentiostatic EIS,78.5662,3.49956,-0.000291363,251.188,0.0278967,-4.45591,0.0278124,0.00216735,1.57459,0.341185,0.00951792,8,0.0318487,3.49956
2,1,Potentiostatic EIS,78.6516,3.49958,0.000281664,223.872,0.0281712,-4.74442,0.0280746,0.00233007,1.49181,0.341559,0.00962211,8,0.0357347,3.49958
2,1,Potentiostatic EIS,78.7407,3.49957,0.000248504,199.526,0.0284725,-4.97824,0.0283651,0.00247077,1.42616,0.340821,0.00970403,8,0.0400951,3.49957
2,1,Potentiostatic EIS,78.8343,3.49957,0.000121605,177.828,0.0287493,-5.10745,0.0286352,0.00255938,1.31726,0.339638,0.00976437,8,0.0449874,3.49957
2,1,Potentiostatic EIS,78.9331,3.49957,0.000109288,158.489,0.0290296,-5.29103,0.0289059,0.00267695,1.21086,0.337848,0.00980759,8,0.0504767,3.49957
2,1,Potentiostatic EIS,79.0383,3.49957,4.7925e-05,141.253,0.0293105,-5.3983,0.0291805,0.0027575,1.13203,0.335704,0.00983964,8,0.0566359,3.49957
2,1,Potentiostatic EIS,79.15,3.49957,-2.28448e-05,125.892,0.0296032,-5.46353,0.0294687,0.00281858,1.01054,0.333225,0.00986453,8,0.0635464,3.49957
2,1,Potentiostatic EIS,79.2702,3.49957,-0.000213972,112.201,0.0298936,-5.50352,0.0297558,0.00286701,0.946271,0.330569,0.00988189,8,0.0713003,3.49957
2,1,Potentiostatic EIS,79.3982,3.49957,-6.96944e-05,99.9997,0.0301835,-5.55065,0.030042,0.00291952,0.845144,0.327771,0.00989328,8,0.0800003,3.49957
2,1,Potentiostatic EIS,79.5372,3.49957,-0.000216359,89.1248,0.0304561,-5.50356,0.0303157,0.00292097,0.765657,0.325094,0.0099011,8,0.0897617,3.49957
2,1,Potentiostatic EIS,79.6873,3.49958,-8.56743e-05,79.4325,0.0307435,-5.45431,0.0306043,0.00292223,0.722376,0.322305,0.00990876,8,0.100714,3.49958
2,1,Potentiostatic EIS,79.8514,3.49957,-4.45727e-05,70.7943,0.0310094,-5.36686,0.0308735,0.00290039,0.619439,0.319645,0.00991202,8,0.113003,3.49957
2,1,Potentiostatic EIS,80.0299,3.49958,0.000127908,63.0956,0.0312721,-5.29699,0.0311386,0.00288699,0.576694,0.317035,0.00991437,8,0.126792,3.49958
2,1,Potentiostatic EIS,80.2263,3.49959,0.000243347,56.2341,0.0315217,-5.21662,0.0313911,0.002866,0.504393,0.30663,0.0096655,8,0.142263,3.49959
2,1,Potentiostatic EIS,80.4394,3.49958,-5.79632e-06,50.1186,0.0317632,-5.08103,0.0316383,0.00281309,0.452168,0.305136,0.00969209,8,0.159621,3.49958
2,1,Potentiostatic EIS,80.6744,3.49958,-8.91536e-05,44.6682,0.0320086,-4.93833,0.0318898,0.00275541,0.400832,0.303656,0.00971959,8,0.179098,3.49958
2,1,Potentiostatic EIS,80.9321,3.49957,-0.000323109,39.8106,0.0322275,-4.79087,0.0321149,0.00269161,0.369295,0.302125,0.00973675,8,0.200952,3.49957
2,1,Potentiostatic EIS,81.216,3.4996,0.0002744,35.4812,0.032444,-4.63462,0.0323379,0.00262151,0.340805,0.300859,0.00976106,8,0.225471,3.4996
2,1,Potentiostatic EIS,81.3595,3.49959,-0.00062151,31.6227,0.032653,-4.48303,0.0325531,0.00255229,0.299016,0.302746,0.00988559,2,0.0632458,3.49959
2,1,Potentiostatic EIS,81.5046,3.49958,-0.000765857,28.1838,0.0328519,-4.30608,0.0327591,0.00246667,0.317431,0.301409,0.00990179,2,0.0709628,3.49958
2,1,Potentiostatic EIS,81.6671,3.49957,-0.000622965,25.1188,0.0330336,-4.12004,0.0329482,0.00237334,0.296544,0.292033,0.00964695,2,0.0796217,3.49957
2,1,Potentiostatic EIS,81.8475,3.49958,-0.000242675,22.3871,0.0332137,-3.95641,0.0331345,0.00229166,0.285842,0.292481,0.00971446,2,0.0893371,3.49958
2,1,Potentiostatic EIS,82.0472,3.4996,-0.000179615,19.9525,0.0333839,-3.75886,0.0333121,0.00218856,0.264806,0.292148,0.00975305,2,0.100238,3.4996
2,1,Potentiostatic EIS,82.2698,3.49959,-0.00049939,17.7828,0.0335359,-3.60744,0.0334694,0.00211008,0.265021,0.292144,0.00979727,2,0.112468,3.49959
2,1,Potentiostatic EIS,82.5172,3.49958,-0.000553855,15.8489,0.0336806,-3.42814,0.0336203,0.00201399,0.246023,0.291523,0.00981874,2,0.126192,3.49958
2,1,Potentiostatic EIS,82.7924,3.49958,-0.000266826,14.1253,0.0338131,-3.24542,0.0337589,0.00191426,0.207863,0.291137,0.00984422,2,0.14159,3.49958
2,1,Potentiostatic EIS,83.0993,3.49959,-0.00037728,12.5892,0.03393,-3.08902,0.0338807,0.0018284,0.21538,0.290597,0.00985999,2,0.158866,3.49959
2,1,Potentiostatic EIS,83.4417,3.49958,-0.000756804,11.2201,0.0340466,-2.9475,0.0340015,0.0017507,0.218285,0.290338,0.00988496,2,0.178251,3.49958
2,1,Potentiostatic EIS,83.8235,3.49957,-0.000899962,9.99996,0.0341622,-2.7909,0.0341217,0.0016634,0.215551,0.289659,0.00989534,2,0.200001,3.49957
2,1,Potentiostatic EIS,84.2494,3.49958,-0.000701713,8.91248,0.0342461,-2.65293,0.0342094,0.00158511,0.190338,0.288985,0.00989659,2,0.224404,3.49958
2,1,Potentiostatic EIS,84.7251,3.49958,-0.000640029,7.94325,0.0343473,-2.52369,0.034314,0.00151239,0.212566,0.288719,0.00991675,2,0.251786,3.49958
2,1,Potentiostatic EIS,85.2574,3.49958,-0.000629961,7.07944,0.0344314,-2.39513,0.0344014,0.00143892,0.216953,0.287901,0.00991284,2,0.282508,3.49958
2,1,Potentiostatic EIS,85.8513,3.49958,-0.000757088,6.30955,0.0345016,-2.30073,0.0344738,0.00138505,0.224712,0.287843,0.00993103,2,0.31698,3.49958
2,1,Potentiostatic EIS,86.5152,3.49959,-0.000918318,5.62339,0.034582,-2.20628,0.0345564,0.00133132,0.222289,0.287322,0.00993615,2,0.355657,3.49959
2,1,Potentiostatic EIS,87.2587,3.49958,-0.00108748,5.01185,0.0346535,-2.11538,0.0346299,0.00127913,0.204961,0.286896,0.00994197,2,0.399054,3.49958
2,1,Potentiostatic EIS,88.0905,3.49958,-0.00107018,4.46682,0.0347098,-2.02849,0.0346881,0.0012286,0.200519,0.286341,0.00993886,2,0.447745,3.49958
2,1,Potentiostatic EIS,89.0184,3.49958,-0.00105821,3.98106,0.0347787,-1.96038,0.0347583,0.00118972,0.199582,0.285704,0.00993642,2,0.502378,3.49958
2,1,Potentiostatic EIS,90.0585,3.49959,-0.00109793,3.54812,0.0348342,-1.91984,0.0348146,0.00116699,0.209056,0.285267,0.00993704,2,0.563679,3.49959
2,1,Potentiostatic EIS,91.223,3.49959,-0.00100916,3.16227,0.0348918,-1.84367,0.0348737,0.00112256,0.190905,0.28493,0.00994171,2,0.632458,3.49959
2,1,Potentiostatic EIS,92.5277,3.49959,-0.00110373,2.81837,0.0349547,-1.81849,0.0349371,0.00110923,0.197998,0.284443,0.00994262,2,0.70963,3.49959
2,1,Potentiostatic EIS,93.9904,3.49959,-0.00107127,2.51188,0.0350037,-1.77282,0.0349869,0.00108289,0.191298,0.284048,0.00994271,2,0.796217,3.49959
2,1,Potentiostatic EIS,95.6307,3.49958,-0.00138757,2.23872,0.035063,-1.75416,0.0350465,0.00107332,0.181709,0.28358,0.00994316,2,0.893369,3.49958
2,1,Potentiostatic EIS,97.4684,3.49959,-0.00130011,1.99526,0.0351023,-1.73639,0.0350862,0.00106364,0.206806,0.283385,0.00994749,2,1.00238,3.49959
2,1,Potentiostatic EIS,99.5291,3.49958,-0.00142336,1.77827,0.0351701,-1.72306,0.0351542,0.00105751,0.183129,0.282893,0.00994937,2,1.12469,3.49958
2,1,Potentiostatic EIS,101.839,3.49958,-0.00142609,1.58489,0.0352149,-1.71411,0.0351992,0.00105336,0.18546,0.282429,0.00994571,2,1.26192,3.49958
2,1,Potentiostatic EIS,104.427,3.49959,-0.00126854,1.41253,0.0352696,-1.72372,0.0352536,0.00106091,0.178561,0.282223,0.0099539,2,1.4159,3.49959
2,1,Potentiostatic EIS,107.332,3.49958,-0.0014439,1.25892,0.0353126,-1.7325,0.0352965,0.00106761,0.194911,0.28161,0.00994438,2,1.58866,3.49958
2,1,Potentiostatic EIS,110.588,3.49958,-0.00117201,1.12202,0.0353532,-1.7612,0.0353365,0.00108654,0.18679,0.281328,0.00994587,2,1.78251,3.49958
2,1,Potentiostatic EIS,114.24,3.49958,-0.00118489,0.999995,0.0354206,-1.76382,0.0354038,0.00109023,0.178714,0.280932,0.00995075,2,2.00001,3.49958
2,1,Potentiostatic EIS,118.336,3.49959,-0.00109413,0.891248,0.0354698,-1.80843,0.0354521,0.00111935,0.181998,0.280513,0.0099497,2,2.24404,3.49959
2,1,Potentiostatic EIS,122.93,3.49959,-0.000990694,0.794324,0.0355228,-1.86828,0.0355039,0.00115811,0.185636,0.280027,0.00994733,2,2.51786,3.49959
2,1,Potentiostatic EIS,128.084,3.49959,-0.00115453,0.707944,0.0355798,-1.88821,0.0355604,0.00117234,0.202644,0.27985,0.009957,2,2.82508,3.49959
2,1,Potentiostatic EIS,133.862,3.49958,-0.00124732,0.630955,0.0356244,-1.95366,0.0356037,0.00121448,0.160952,0.279162,0.00994496,2,3.1698,3.49958
2,1,Potentiostatic EIS,140.347,3.49959,-0.000856722,0.562339,0.0356897,-2.01878,0.0356675,0.00125724,0.177517,0.278846,0.00995191,2,3.55657,3.49959
2,1,Potentiostatic EIS,147.621,3.49959,-0.0011021,0.501186,0.0357479,-2.08488,0.0357242,0.00130051,0.1578,0.278306,0.00994885,2,3.99054,3.49959
2,1,Potentiostatic EIS,155.781,3.49959,-0.000762667,0.446681,0.0358028,-2.18488,0.0357768,0.00136495,0.197072,0.278028,0.00995417,2,4.47747,3.49959
2,1,Potentiostatic EIS,164.935,3.49959,-0.000809511,0.398106,0.0359132,-2.26153,0.0358852,0.00141717,0.213009,0.277062,0.00995019,2,5.02379,3.49959
2,1,Potentiostatic EIS,175.204,3.49959,-0.000885143,0.354812,0.0360161,-2.36963,0.0359853,0.00148912,0.170867,0.276221,0.00994842,2,5.63679,3.49959
2,1,Potentiostatic EIS,186.719,3.49959,-0.000602869,0.316226,0.0360826,-2.47334,0.036049,0.00155713,0.19118,0.275735,0.00994924,2,6.32458,3.49959
2,1,Potentiostatic EIS,199.639,3.49959,-0.000608373,0.281837,0.0361554,-2.59544,0.0361183,0.00163724,0.17796,0.275182,0.00994929,2,7.09631,3.49959
2,1,Potentiostatic EIS,214.134,3.49959,-0.000865497,0.251188,0.0361883,-2.69423,0.0361483,0.00170107,0.179381,0.274835,0.00994581,2,7.96218,3.49959
2,1,Potentiostatic EIS,230.397,3.49958,-0.000395617,0.223871,0.0362731,-2.85704,0.036228,0.001808,0.198177,0.274341,0.00995119,2,8.9337,3.49958
2,1,Potentiostatic EIS,248.64,3.49958,-0.000672501,0.199525,0.0363474,-3.00789,0.0362973,0.00190728,0.185637,0.273835,0.00995318,2,10.0238,3.49958
2,1,Potentiostatic EIS,269.107,3.49958,-0.000476171,0.177827,0.0364303,-3.18,0.0363742,0.0020209,0.177854,0.273112,0.00994952,2,11.2469,3.49958
2,1,Potentiostatic EIS,292.078,3.49959,-5.13517e-05,0.158489,0.0365402,-3.33569,0.0364783,0.00212613,0.177986,0.272377,0.00995268,2,12.6192,3.49959
2,1,Potentiostatic EIS,317.843,3.49959,-0.000475441,0.141253,0.0366135,-3.52015,0.0365444,0.00224806,0.194973,0.271956,0.00995725,2,14.159,3.49959
2,1,Potentiostatic EIS,346.756,3.49958,-0.000481466,0.125892,0.0367365,-3.73644,0.0366584,0.00239401,0.180218,0.270924,0.0099528,2,15.8867,3.49958
2,1,Potentiostatic EIS,379.188,3.49958,-5.646e-05,0.112201,0.0368936,-3.95129,0.0368059,0.00254228,0.205351,0.269816,0.00995448,2,17.8251,3.49958
2,1,Potentiostatic EIS,415.58,3.49958,-0.000580875,0.0999997,0.0370184,-4.18815,0.0369195,0.00270352,0.18875,0.268926,0.00995521,2,20.0001,3.49958
2,1,Potentiostatic EIS,456.409,3.49958,-0.000136549,0.0891246,0.0371588,-4.43821,0.0370473,0.00287549,0.177557,0.267953,0.00995676,2,22.4405,3.49958
2,1,Potentiostatic EIS,502.209,3.49957,-0.000134251,0.0794325,0.0372512,-4.73862,0.0371239,0.00307733,0.187772,0.267166,0.00995223,2,25.1786,3.49957
2,1,Potentiostatic EIS,553.607,3.49957,-0.000615758,0.0707942,0.0373518,-5.0472,0.037207,0.00328608,0.167192,0.266331,0.00994791,2,28.2509,3.49957
2,1,Potentiostatic EIS,611.264,3.49957,9.25717e-05,0.0630955,0.0375074,-5.36225,0.0373433,0.00350516,0.197778,0.265349,0.00995256,2,31.698,3.49957
2,1,Potentiostatic EIS,675.953,3.49958,-4.09948e-05,0.0562339,0.0376929,-5.70546,0.0375062,0.00374722,0.182214,0.2642,0.00995845,2,35.5657,3.49958
2,1,Potentiostatic EIS,748.536,3.49958,-0.000208018,0.0501185,0.0378873,-6.08187,0.037674,0.00401414,0.173984,0.262822,0.00995763,2,39.9054,3.49958
2,1,Potentiostatic EIS,821.288,3.49959,-0.000180578,0.05,0.0378647,-6.11259,0.0376494,0.00403193,0.17551,0.262941,0.00995618,2,40,3.49959