File: Data/P190/P190_04/EIS_04_P190_04_2/2_EIS_04_P190_04_2 20231005 142829.csv
Step number,Repeats,Step name,Elapsed Time  (s),DC Working Electrode (V),DC Current (A),Frequency (Hz),|Z| (Ohms),Phase (deg),Z' (Ohms),-Z" (Ohms),THD (%),Amplitude (A),Amplitude (V),No of Cycles,Duration of Each Frequency (s),IR Compensated DC Working Electrode (V)
2,1,Potentiostatic EIS,60.2993,3.50816,-0.0129044,1000000,1.42998,85.5518,0.110905,-1.42567,0.808081,0.00703638,0.0100619,1430,0.00143,3.50816
2,1,Potentiostatic EIS,60.5367,3.50807,-0.0150743,891251,1.28377,85.2729,0.105796,-1.2794,0.837969,0.00777486,0.00998112,1310,0.00146984,3.50807
2,1,Potentiostatic EIS,60.7837,3.50803,-0.0157954,794328,1.15549,85.1017,0.0986634,-1.15127,1.01546,0.00862992,0.00997173,1445,0.00181915,3.50803
2,1,Potentiostatic EIS,61.0378,3.508,-0.01657,707946,1.03463,85.1136,0.0881306,-1.03087,1.03833,0.00963252,0.00996618,1340,0.0018928,3.508
2,1,Potentiostatic EIS,61.296,3.50792,-0.0180215,630957.25,0.926259,84.4993,0.0887898,-0.921994,1.05955,0.0105672,0.00978805,1355,0.00214753,3.50792
2,1,Potentiostatic EIS,61.5863,3.50789,-0.0189863,562341.25,0.828698,84.2877,0.0824827,-0.824583,1.23549,0.0120616,0.00999545,1360,0.00241846,3.50789
2,1,Potentiostatic EIS,61.8778,3.50784,-0.0199701,501187,0.744627,84.3446,0.0733795,-0.741003,1.25542,0.0134383,0.0100065,1385,0.00276344,3.50784
2,1,Potentiostatic EIS,62.1697,3.5078,-0.0208567,446684,0.666562,83.6053,0.0742399,-0.662415,1.36876,0.0149265,0.00994944,1360,0.00304466,3.5078
2,1,Potentiostatic EIS,62.471,3.50775,-0.0218378,398107,0.598648,83.1784,0.0711067,-0.59441,1.37253,0.0166696,0.00997921,1400,0.00351664,3.50775
2,1,Potentiostatic EIS,62.7883,3.50771,-0.0231489,354813,0.53507,82.8959,0.0661735,-0.530963,1.53781,0.0185939,0.00994905,1365,0.00384709,3.50771
2,1,Potentiostatic EIS,63.1228,3.50765,-0.0243703,316228,0.479358,82.4724,0.0627976,-0.475227,1.4521,0.0207566,0.00994985,1370,0.00433232,3.50765
2,1,Potentiostatic EIS,63.6111,3.5076,-0.0252641,281838.25,0.431644,81.8847,0.0609331,-0.427321,1.75024,0.023064,0.00995544,1370,0.00486094,3.5076
2,1,Potentiostatic EIS,63.9787,3.50755,-0.0265702,251189,0.387832,81.3454,0.0583602,-0.383415,1.68673,0.025532,0.00990198,1340,0.00533464,3.50755
2,1,Potentiostatic EIS,64.3644,3.50748,-0.0280963,223872,0.348451,80.9572,0.0547671,-0.34412,1.76502,0.0280398,0.00977076,1360,0.0060749,3.50748
2,1,Potentiostatic EIS,64.8046,3.5074,-0.030015,199526,0.311205,80.5138,0.0512895,-0.306949,1.76061,0.031883,0.00992215,1355,0.00679109,3.5074
2,1,Potentiostatic EIS,65.2746,3.50733,-0.0314457,177828,0.281126,79.755,0.0500007,-0.276644,1.90718,0.0354246,0.00995885,1355,0.00761973,3.50733
2,1,Potentiostatic EIS,65.7731,3.50727,-0.0326685,158489,0.252151,78.8768,0.0486449,-0.247415,2.03606,0.0394509,0.00994758,1360,0.00858103,3.50727
2,1,Potentiostatic EIS,66.3091,3.50718,-0.0345193,141254,0.227258,78.3777,0.0457833,-0.222599,1.97552,0.043912,0.00997938,1355,0.00959267,3.50718
2,1,Potentiostatic EIS,66.886,3.50711,-0.0359731,125892,0.204724,77.394,0.0446799,-0.199789,2.1326,0.0487593,0.00998225,1370,0.0108823,3.50711
2,1,Potentiostatic EIS,67.7481,3.50701,-0.037523,112202,0.184226,76.4227,0.0432484,-0.179078,2.09819,0.0542176,0.00998828,1360,0.012121,3.50701
2,1,Potentiostatic EIS,68.6822,3.50773,-0.0194484,99999.9,0.166044,75.6827,0.0410612,-0.160886,3.48239,0.0600702,0.0099743,1370,0.0137,3.50773
2,1,Potentiostatic EIS,69.2263,3.50772,-0.0197596,89125.1,0.14956,74.4758,0.0400291,-0.144104,3.7513,0.0665536,0.00995371,1365,0.0153156,3.50772
2,1,Potentiostatic EIS,69.823,3.50772,-0.0197856,79432.8,0.134945,73.2428,0.038907,-0.129215,5.62467,0.0735328,0.00992285,1365,0.0171843,3.50772
2,1,Potentiostatic EIS,70.468,3.5077,-0.0199788,70794.5,0.121836,71.9801,0.0376895,-0.11586,4.22929,0.0810836,0.00987889,1370,0.0193518,3.5077
2,1,Potentiostatic EIS,70.6862,3.50771,-0.0198926,63095.7,0.11009,70.6853,0.0364129,-0.103893,4.50286,0.0894711,0.0098503,1290,0.0204451,3.50771
2,1,Potentiostatic EIS,70.909,3.50769,-0.0201194,56234.1,0.100127,69.0647,0.0357765,-0.0935166,4.72966,0.0985484,0.00986737,1150,0.0204502,3.50769
2,1,Potentiostatic EIS,71.1364,3.50768,-0.0202775,50118.7,0.0904762,67.4464,0.034702,-0.0835567,4.91234,0.108455,0.00981272,1025,0.0204515,3.50768
2,1,Potentiostatic EIS,71.3561,3.50767,-0.0204901,44668.3,0.0821677,65.1768,0.0344957,-0.074576,5.20793,0.119395,0.00981072,910,0.0203724,3.50767
2,1,Potentiostatic EIS,71.5758,3.50769,-0.0201534,39810.7,0.074901,63.5931,0.0333117,-0.0670857,5.46373,0.131258,0.00983155,815,0.0204719,3.50769
2,1,Potentiostatic EIS,71.8006,3.5077,-0.0194266,35481.3,0.0683881,61.4307,0.0327046,-0.0600612,5.59268,0.144051,0.00985136,725,0.0204333,3.5077
2,1,Potentiostatic EIS,72.0227,3.50771,-0.0193107,31622.8,0.0631137,58.8561,0.0326417,-0.0540172,5.79473,0.157335,0.00992993,645,0.0203967,3.50771
2,1,Potentiostatic EIS,72.2424,3.5077,-0.0193106,28183.8,0.0576301,56.7387,0.0316077,-0.048189,5.94473,0.172092,0.0099177,575,0.0204018,3.5077
2,1,Potentiostatic EIS,72.465,3.508,-0.0118869,25118.8,0.0537842,53.8801,0.0317045,-0.0434461,5.99998,0.185463,0.00997495,510,0.0203035,3.508
2,1,Potentiostatic EIS,72.6875,3.50807,-0.0101334,22387.2,0.0494966,51.147,0.0310504,-0.0385459,5.97399,0.201516,0.00997441,455,0.0203241,3.50807
2,1,Potentiostatic EIS,72.9116,3.50808,-0.0096244,19952.6,0.0464567,48.1817,0.030976,-0.0346225,5.93633,0.21816,0.0101349,405,0.0202981,3.50808
2,1,Potentiostatic EIS,73.1313,3.50813,-0.00894152,17782.8,0.0435826,45.4145,0.0305938,-0.0310397,5.9811,0.231613,0.0100941,360,0.0202443,3.50813
2,1,Potentiostatic EIS,73.3551,3.50815,-0.00838258,15848.9,0.0408764,42.3202,0.0302237,-0.027521,5.66741,0.245761,0.0100457,320,0.0201906,3.50815
2,1,Potentiostatic EIS,73.5956,3.50817,-0.00777429,14125.4,0.0391348,39.1773,0.0303371,-0.0247223,5.55427,0.25493,0.00997662,285,0.0201765,3.50817
2,1,Potentiostatic EIS,73.8845,3.50822,-0.00705452,12589.2,0.0371619,36.3267,0.0299396,-0.0220143,5.28186,0.267972,0.00995836,255,0.0202554,3.50822
2,1,Potentiostatic EIS,74.1039,3.50825,-0.00635363,11220.2,0.0357687,33.1773,0.0299378,-0.0195738,5.08801,0.280463,0.0100318,225,0.0200532,3.50825
2,1,Potentiostatic EIS,74.4534,3.50841,-0.00635716,9999.98,0.0345959,30.7799,0.0297227,-0.0177042,2.32295,0.289196,0.010005,307,0.0307001,3.50841
2,1,Potentiostatic EIS,74.7089,3.50847,-0.00477731,8912.5,0.0335526,28.3227,0.0295361,-0.0159186,2.50821,0.302081,0.0101356,273,0.0306311,3.50847
2,1,Potentiostatic EIS,74.9206,3.50848,-0.00477558,7943.27,0.0325458,26.1892,0.0292047,-0.0143637,2.75591,0.284166,0.0092484,244,0.0307178,3.50848
2,1,Potentiostatic EIS,75.1318,3.50848,-0.00494027,7079.45,0.0312989,23.8656,0.0286228,-0.0126633,2.91044,0.323377,0.0101214,217,0.0306521,3.50848
2,1,Potentiostatic EIS,75.3428,3.5085,-0.00478608,6309.57,0.0303591,20.2928,0.0284748,-0.0105291,3.0199,0.347225,0.0105414,193,0.0305885,3.5085
2,1,Potentiostatic EIS,75.5542,3.50851,-0.0040226,5623.41,0.0300996,17.2672,0.0287431,-0.0089344,3.05008,0.346408,0.0104267,172,0.0305864,3.50851
2,1,Potentiostatic EIS,75.7669,3.50854,-0.00340064,5011.87,0.0300439,14.9991,0.0290203,-0.00777546,3.05016,0.343074,0.0103073,153,0.0305276,3.50854
2,1,Potentiostatic EIS,75.9795,3.50855,-0.00319659,4466.83,0.0299358,13.0544,0.0291622,-0.00676181,3.01763,0.340478,0.0101925,137,0.0306705,3.50855
2,1,Potentiostatic EIS,76.1469,3.50859,-0.00244093,3981.07,0.0298878,11.3671,0.0293016,-0.00589075,3.02653,0.285871,0.00854407,122,0.0306451,3.50859
2,1,Potentiostatic EIS,76.317,3.50858,-0.00256083,3548.13,0.029764,9.76018,0.0293332,-0.00504573,2.96284,0.321973,0.0095832,108,0.0304386,3.50858
2,1,Potentiostatic EIS,76.4853,3.50857,-0.00272256,3162.27,0.0297818,8.32357,0.0294681,-0.00431131,2.84159,0.353739,0.010535,97,0.0306742,3.50857
2,1,Potentiostatic EIS,76.6538,3.5086,-0.00222273,2818.38,0.0297723,7.01253,0.0295496,-0.00363479,2.74578,0.35024,0.0104274,86,0.030514,3.5086
2,1,Potentiostatic EIS,76.8223,3.50861,-0.00188503,2511.88,0.0297761,5.86258,0.0296204,-0.00304142,2.82701,0.346375,0.0103137,77,0.0306543,3.50861
2,1,Potentiostatic EIS,76.9901,3.50861,-0.00178451,2238.72,0.0298239,4.716,0.0297229,-0.00245203,2.60385,0.342923,0.0102273,68,0.0303745,3.50861
2,1,Potentiostatic EIS,77.1573,3.50863,-0.00153079,1995.26,0.029883,3.729,0.0298198,-0.00194351,2.65729,0.339363,0.0101412,61,0.0305725,3.50863
2,1,Potentiostatic EIS,77.2805,3.50862,-0.00183127,1778.28,0.0299557,2.78972,0.0299202,-0.00145796,2.56668,0.297008,0.00889706,54,0.0303664,3.50862
2,1,Potentiostatic EIS,77.405,3.50861,-0.00199764,1584.89,0.0300788,1.95866,0.0300612,-0.00102805,2.45553,0.326872,0.0098319,48,0.030286,3.50861
2,1,Potentiostatic EIS,77.5287,3.50861,-0.00198519,1412.53,0.0301719,1.2316,0.0301649,-0.000648511,2.40702,0.343942,0.0103774,43,0.0304417,3.50861
2,1,Potentiostatic EIS,77.6517,3.50863,-0.00134883,1258.92,0.030286,0.548825,0.0302846,-0.000290099,2.39296,0.34041,0.0103096,38,0.0301845,3.50863
2,1,Potentiostatic EIS,77.7753,3.50863,-0.00139447,1122.02,0.0304247,-0.0995001,0.0304246,5.28356e-05,2.33491,0.336463,0.0102368,34,0.0303026,3.50863
2,1,Potentiostatic EIS,77.8984,3.50864,-0.0012885,999.999,0.0305972,-0.669732,0.0305951,0.000357643,2.30891,0.333082,0.0101914,30,0.03,3.50864
2,1,Potentiostatic EIS,78.0209,3.50864,-0.000931251,891.25,0.0307683,-1.23598,0.0307611,0.000663677,2.27275,0.329215,0.0101294,27,0.0302945,3.50864
2,1,Potentiostatic EIS,78.1452,3.50866,-0.00106296,794.328,0.0309349,-1.6775,0.0309217,0.00090558,2.22361,0.326055,0.0100865,24,0.0302142,3.50866
2,1,Potentiostatic EIS,78.2683,3.50864,-0.00111117,707.945,0.0311406,-2.07884,0.0311201,0.00112961,2.18162,0.32326,0.0100665,21,0.0296633,3.50864
2,1,Potentiostatic EIS,78.3919,3.50863,-0.00158912,630.956,0.0313409,-2.48772,0.0313114,0.00136036,2.13274,0.320308,0.0100387,19,0.030113,3.50863
2,1,Potentiostatic EIS,78.5148,3.50865,-0.00101042,562.34,0.031539,-2.82797,0.0315006,0.00155605,2.0787,0.318419,0.0100426,17,0.0302308,3.50865
2,1,Potentiostatic EIS,78.6384,3.50866,-0.000933592,501.185,0.0317754,-3.16876,0.0317269,0.00175645,2.00109,0.315325,0.0100196,15,0.029929,3.50866
2,1,Potentiostatic EIS,78.7175,3.50867,-0.000847815,446.683,0.0319824,-3.44267,0.0319247,0.00192054,1.97366,0.273562,0.00874918,13,0.0291034,3.50867
2,1,Potentiostatic EIS,78.7969,3.50866,-0.000769551,398.107,0.032232,-3.67081,0.0321659,0.00206362,1.89785,0.279393,0.0090054,12,0.0301427,3.50866
2,1,Potentiostatic EIS,78.8782,3.50866,-0.000852345,354.813,0.0324599,-3.93888,0.0323832,0.00222974,1.79374,0.283658,0.0092075,10,0.0281839,3.50866
2,1,Potentiostatic EIS,78.9573,3.50866,-0.000767326,316.227,0.0326964,-4.08861,0.0326132,0.00233123,1.70796,0.286508,0.00936778,9,0.0284606,3.50866
2,1,Potentiostatic EIS,79.0387,3.50865,-0.000872326,281.838,0.0329897,-4.22762,0.0328999,0.00243196,1.61994,0.288308,0.00951119,8,0.0283851,3.50865
2,1,Potentiostatic EIS,79.1188,3.50865,-0.000970572,251.188,0.0332253,-4.41254,0.0331268,0.00255626,1.51989,0.289111,0.0096058,8,0.0318487,3.50865
2,1,Potentiostatic EIS,79.2034,3.50865,-0.000943008,223.872,0.0334931,-4.46565,0.0333914,0.00260781,1.38718,0.289237,0.00968743,8,0.0357347,3.50865
2,1,Potentiostatic EIS,79.2927,3.50866,-0.00104288,199.526,0.033742,-4.53961,0.0336361,0.00267062,1.31893,0.288845,0.00974621,8,0.0400951,3.50866
2,1,Potentiostatic EIS,79.3875,3.50866,-0.000975363,177.828,0.0340032,-4.56656,0.0338953,0.00270724,1.19559,0.287946,0.00979108,8,0.0449874,3.50866
2,1,Potentiostatic EIS,79.487,3.50864,-0.00110755,158.489,0.0342978,-4.59105,0.0341877,0.00274531,1.11198,0.2868,0.0098366,8,0.0504767,3.50864
2,1,Potentiostatic EIS,79.5932,3.50865,-0.00102641,141.253,0.0345472,-4.60739,0.0344356,0.00277509,1.02919,0.285285,0.00985579,8,0.0566359,3.50865
2,1,Potentiostatic EIS,79.7055,3.50866,-0.000740469,125.892,0.0347926,-4.59541,0.0346808,0.00278755,0.947893,0.283803,0.00987424,8,0.0635464,3.50866
2,1,Potentiostatic EIS,79.8252,3.50866,-0.000912544,112.201,0.0350533,-4.5435,0.0349431,0.00277678,0.851189,0.282089,0.00988814,8,0.0713003,3.50866
2,1,Potentiostatic EIS,79.9539,3.50866,-0.000771077,99.9997,0.0353092,-4.48415,0.0352011,0.00276059,0.746418,0.280311,0.00989756,8,0.0800003,3.50866
2,1,Potentiostatic EIS,80.0939,3.50866,-0.000698015,89.1248,0.0355569,-4.39533,0.0354523,0.002725,0.677694,0.278553,0.0099045,8,0.0897617,3.50866
2,1,Potentiostatic EIS,80.2463,3.50865,-0.00101162,79.4325,0.0357987,-4.30805,0.0356975,0.00268915,0.617094,0.276834,0.00991027,8,0.100714,3.50865
2,1,Potentiostatic EIS,80.4107,3.50866,-0.00103606,70.7943,0.0360354,-4.21571,0.0359379,0.00264903,0.548934,0.275152,0.00991521,8,0.113003,3.50866
2,1,Potentiostatic EIS,80.5901,3.50865,-0.000987435,63.0956,0.0362474,-4.07681,0.0361557,0.00257696,0.512627,0.273533,0.00991486,8,0.126792,3.50865
2,1,Potentiostatic EIS,80.786,3.50866,-0.000458408,56.2341,0.0364717,-3.95891,0.0363847,0.00251805,0.429245,0.265667,0.00968932,8,0.142263,3.50866
2,1,Potentiostatic EIS,80.9995,3.50867,-0.000555337,50.1186,0.0366838,-3.83561,0.0366017,0.00245393,0.380031,0.264893,0.00971728,8,0.159621,3.50867
2,1,Potentiostatic EIS,81.2357,3.50867,-0.000906806,44.6682,0.036876,-3.68583,0.0367997,0.00237059,0.346683,0.264137,0.00974032,8,0.179098,3.50867
2,1,Potentiostatic EIS,81.4946,3.50865,-0.00135371,39.8106,0.0370517,-3.52962,0.0369815,0.00228107,0.323315,0.263268,0.00975455,8,0.200952,3.50865
2,1,Potentiostatic EIS,81.7782,3.50867,-0.000563253,35.4812,0.0372273,-3.35787,0.0371634,0.00218049,0.281773,0.262672,0.00977858,8,0.225471,3.50867
2,1,Potentiostatic EIS,81.9209,3.50866,-0.00118895,31.6227,0.0374127,-3.19815,0.0373544,0.00208723,0.298058,0.264406,0.00989214,2,0.0632458,3.50866
2,1,Potentiostatic EIS,82.0665,3.50866,-0.00107757,28.1838,0.0375403,-3.06388,0.0374866,0.0020065,0.263505,0.264123,0.00991526,2,0.0709628,3.50866
2,1,Potentiostatic EIS,82.2291,3.50866,-0.00123024,25.1188,0.0376997,-2.86767,0.0376525,0.00188609,0.271587,0.255969,0.00965009,2,0.0796217,3.50866
2,1,Potentiostatic EIS,82.41,3.50866,-0.0010759,22.3871,0.0378111,-2.75303,0.0377675,0.00181611,0.222595,0.256595,0.00970222,2,0.0893371,3.50866
2,1,Potentiostatic EIS,82.6104,3.50866,-0.00128163,19.9525,0.0379361,-2.58475,0.0378975,0.00171081,0.244583,0.257083,0.00975287,2,0.100238,3.50866
2,1,Potentiostatic EIS,82.8328,3.50867,-0.000886205,17.7828,0.0380582,-2.46241,0.038023,0.00163513,0.225501,0.257134,0.00978603,2,0.112468,3.50867
2,1,Potentiostatic EIS,83.0801,3.50866,-0.0010618,15.8489,0.0381602,-2.33509,0.0381285,0.00155479,0.204947,0.257447,0.00982424,2,0.126192,3.50866
2,1,Potentiostatic EIS,83.3552,3.50865,-0.00129524,14.1253,0.0382609,-2.21546,0.0382323,0.00147907,0.211316,0.257456,0.00985049,2,0.14159,3.50865
2,1,Potentiostatic EIS,83.6619,3.50866,-0.0014362,12.5892,0.0383358,-2.09705,0.0383101,0.0014028,0.221332,0.257337,0.00986523,2,0.158866,3.50866
2,1,Potentiostatic EIS,84.0039,3.50865,-0.00124561,11.2201,0.038408,-1.93911,0.038386,0.00129963,0.218973,0.257249,0.00988044,2,0.178251,3.50865
2,1,Potentiostatic EIS,84.3853,3.50865,-0.00160964,9.99996,0.0384856,-1.8754,0.038465,0.00125948,0.203483,0.257401,0.00990627,2,0.200001,3.50865
2,1,Potentiostatic EIS,84.8113,3.50866,-0.00138542,8.91248,0.0385475,-1.78059,0.0385289,0.00119775,0.170916,0.257034,0.00990802,2,0.224404,3.50866
2,1,Potentiostatic EIS,85.2868,3.50866,-0.00127821,7.94325,0.0386319,-1.68991,0.0386151,0.00113926,0.187605,0.256832,0.00992192,2,0.251786,3.50866
2,1,Potentiostatic EIS,85.8178,3.50866,-0.00139827,7.07944,0.0386756,-1.60036,0.0386605,0.00108013,0.202264,0.256598,0.00992411,2,0.282508,3.50866
2,1,Potentiostatic EIS,86.4116,3.50867,-0.00141458,6.30955,0.0387532,-1.54061,0.0387391,0.00104189,0.174943,0.256246,0.00993035,2,0.31698,3.50867
2,1,Potentiostatic EIS,87.0755,3.50866,-0.00136708,5.62339,0.0388131,-1.4835,0.0388001,0.00100483,0.189175,0.256086,0.0099395,2,0.355657,3.50866
2,1,Potentiostatic EIS,87.8166,3.50867,-0.00150194,5.01185,0.0388524,-1.42253,0.0388404,0.000964522,0.167808,0.25594,0.00994386,2,0.399054,3.50867
2,1,Potentiostatic EIS,88.6453,3.50866,-0.00143439,4.46682,0.0389073,-1.38879,0.0388959,0.000942976,0.194582,0.25557,0.00994352,2,0.447745,3.50866
2,1,Potentiostatic EIS,89.5739,3.50866,-0.00153168,3.98106,0.0389542,-1.32204,0.0389439,0.000898746,0.187355,0.255357,0.00994723,2,0.502378,3.50866
2,1,Potentiostatic EIS,90.6132,3.50866,-0.00166971,3.54812,0.0390054,-1.28819,0.0389956,0.000876894,0.163813,0.255083,0.00994963,2,0.563679,3.50866
2,1,Potentiostatic EIS,91.7781,3.50866,-0.00164685,3.16227,0.0390454,-1.27736,0.0390356,0.000870411,0.194472,0.254802,0.00994885,2,0.632458,3.50866
2,1,Potentiostatic EIS,93.0832,3.50866,-0.00175643,2.81837,0.0391109,-1.26869,0.0391013,0.000865953,0.161334,0.254305,0.0099461,2,0.70963,3.50866
2,1,Potentiostatic EIS,94.5457,3.50866,-0.00214422,2.51188,0.0391744,-1.23773,0.0391652,0.0008462,0.179844,0.253975,0.00994932,2,0.796217,3.50866
2,1,Potentiostatic EIS,96.1855,3.50867,-0.00174699,2.23872,0.0392329,-1.24572,0.0392236,0.000852934,0.181391,0.25376,0.00995575,2,0.893369,3.50867
2,1,Potentiostatic EIS,98.023,3.50867,-0.00162998,1.99526,0.0392959,-1.24509,0.0392866,0.000853869,0.177654,0.253233,0.00995104,2,1.00238,3.50867
2,1,Potentiostatic EIS,100.084,3.50866,-0.00197794,1.77827,0.0393612,-1.22776,0.0393521,0.000843382,0.177705,0.252764,0.00994908,2,1.12469,3.50866
2,1,Potentiostatic EIS,102.393,3.50866,-0.00179473,1.58489,0.0393991,-1.22315,0.0393901,0.000841029,0.174283,0.252799,0.00996009,2,1.26192,3.50866
2,1,Potentiostatic EIS,104.983,3.50866,-0.00182433,1.41253,0.0394659,-1.26153,0.0394563,0.000868882,0.175621,0.252276,0.00995632,2,1.4159,3.50866
2,1,Potentiostatic EIS,107.887,3.50866,-0.0019907,1.25892,0.0395381,-1.28275,0.0395282,0.000885113,0.197457,0.251696,0.0099516,2,1.58866,3.50866
2,1,Potentiostatic EIS,111.143,3.50866,-0.00185418,1.12202,0.0396049,-1.30893,0.0395945,0.000904703,0.195313,0.251307,0.009953,2,1.78251,3.50866
2,1,Potentiostatic EIS,114.795,3.50866,-0.00176553,0.999995,0.0396788,-1.3261,0.0396682,0.00091828,0.165521,0.250957,0.00995768,2,2.00001,3.50866
2,1,Potentiostatic EIS,118.891,3.50866,-0.00191388,0.891248,0.0397496,-1.36801,0.0397383,0.00094898,0.197868,0.250455,0.00995552,2,2.24404,3.50866
2,1,Potentiostatic EIS,123.486,3.50866,-0.00173554,0.794324,0.0398333,-1.42123,0.0398211,0.000987968,0.177812,0.249975,0.00995737,2,2.51786,3.50866
2,1,Potentiostatic EIS,128.64,3.50866,-0.00171957,0.707944,0.0399214,-1.48199,0.039908,0.00103248,0.142014,0.249584,0.00996374,2,2.82508,3.50866
2,1,Potentiostatic EIS,134.419,3.50866,-0.00186518,0.630955,0.0400118,-1.53166,0.0399975,0.00106949,0.174285,0.24876,0.00995333,2,3.1698,3.50866
2,1,Potentiostatic EIS,140.904,3.50865,-0.00153604,0.562339,0.0401196,-1.57819,0.0401044,0.00110494,0.183566,0.248092,0.00995337,2,3.55657,3.50865
2,1,Potentiostatic EIS,148.179,3.50866,-0.00147455,0.501186,0.0402104,-1.66647,0.0401933,0.00116937,0.190301,0.247795,0.00996391,2,3.99054,3.50866
2,1,Potentiostatic EIS,156.339,3.50866,-0.00149011,0.446681,0.0402603,-1.75431,0.0402415,0.00123252,0.180005,0.247184,0.0099517,2,4.47747,3.50866
2,1,Potentiostatic EIS,165.493,3.50866,-0.00115804,0.398106,0.0403705,-1.8004,0.0403506,0.00126835,0.195384,0.246548,0.00995327,2,5.02379,3.50866
2,1,Potentiostatic EIS,175.762,3.50865,-0.00138584,0.354812,0.0404929,-1.91329,0.0404704,0.00135194,0.167794,0.246044,0.00996307,2,5.63679,3.50865
2,1,Potentiostatic EIS,187.277,3.50865,-0.00130965,0.316226,0.0406091,-1.99503,0.0405844,0.00141372,0.156835,0.245326,0.00996248,2,6.32458,3.50865
2,1,Potentiostatic EIS,200.196,3.50865,-0.00102741,0.281837,0.0407266,-2.11922,0.0406988,0.00150603,0.170817,0.244436,0.00995507,2,7.09631,3.50865
2,1,Potentiostatic EIS,214.691,3.50865,-0.00121467,0.251188,0.0408424,-2.21164,0.040812,0.00157614,0.19371,0.243686,0.00995272,2,7.96218,3.50865
2,1,Potentiostatic EIS,230.954,3.50865,-0.000882241,0.223871,0.0409559,-2.35949,0.0409212,0.00168612,0.175104,0.243281,0.0099638,2,8.9337,3.50865
2,1,Potentiostatic EIS,249.198,3.50865,-0.000617435,0.199525,0.04108,-2.4797,0.0410415,0.00177734,0.170234,0.242463,0.00996039,2,10.0238,3.50865
2,1,Potentiostatic EIS,269.665,3.50864,-0.00107185,0.177827,0.0411767,-2.60851,0.041134,0.00187401,0.167154,0.241734,0.0099538,2,11.2469,3.50864
2,1,Potentiostatic EIS,292.634,3.50864,-0.000795673,0.158489,0.0412995,-2.77797,0.041251,0.00200161,0.178993,0.241108,0.00995762,2,12.6192,3.50864
2,1,Potentiostatic EIS,318.399,3.50865,-0.000777373,0.141253,0.0414033,-2.94514,0.0413486,0.00212729,0.190778,0.240666,0.00996438,2,14.159,3.50865
2,1,Potentiostatic EIS,347.312,3.50865,-0.00116355,0.125892,0.0420519,-3.07157,0.0419915,0.00225328,0.169982,0.236884,0.00996055,2,15.8867,3.50865
2,1,Potentiostatic EIS,379.744,3.50865,-0.000633477,0.112201,0.0426272,-3.22761,0.0425596,0.00240003,0.17819,0.233698,0.0099619,2,17.8251,3.50865
2,1,Potentiostatic EIS,416.137,3.50866,-0.000824417,0.0999997,0.0427682,-3.43592,0.0426913,0.00256319,0.170415,0.233005,0.00996522,2,20.0001,3.50866
2,1,Potentiostatic EIS,456.964,3.50866,-0.00218725,0.0891246,0.0432233,-4.05137,0.0431153,0.00305376,1.99357,0.23049,0.00996226,2,22.4405,3.50866
2,1,Potentiostatic EIS,502.765,3.50866,-0.000453447,0.0794325,0.0472006,-3.54957,0.04711,0.00292229,0.160149,0.211125,0.00996519,2,25.1786,3.50866
2,1,Potentiostatic EIS,554.163,3.50866,-0.00012459,0.0707942,0.048099,-3.73192,0.047997,0.00313068,0.388764,0.20718,0.00996489,2,28.2509,3.50866
2,1,Potentiostatic EIS,611.82,3.50866,-0.000326557,0.0630955,0.0486851,-3.95294,0.0485693,0.0033562,0.174605,0.204676,0.00996468,2,31.698,3.50866
2,1,Potentiostatic EIS,676.508,3.50866,3.74083e-05,0.0562339,0.0489841,-4.21726,0.0488514,0.00360222,0.149059,0.203438,0.00996521,2,35.5657,3.50866
2,1,Potentiostatic EIS,749.09,3.50866,-0.000551354,0.0501185,0.0493183,-4.49083,0.0491669,0.0038616,0.180071,0.202155,0.00996997,2,39.9054,3.50866
2,1,Potentiostatic EIS,821.842,3.50866,-0.000601295,0.05,0.0493798,-4.49418,0.049228,0.00386929,0.144038,0.201813,0.0099655,2,40,3.50866