File: Data/P190/P190_03/EIS_04_P190_03_2/2_EIS_04_P190_03_2 20230912 111458.csv
Step number,Repeats,Step name,Elapsed Time  (s),DC Working Electrode (V),DC Current (A),Frequency (Hz),|Z| (Ohms),Phase (deg),Z' (Ohms),-Z" (Ohms),THD (%),Amplitude (A),Amplitude (V),No of Cycles,Duration of Each Frequency (s),IR Compensated DC Working Electrode (V)
2,1,Potentiostatic EIS,0,3.51464,-0.011976,1000000,1.99951,87.3897,0.0910638,-1.99744,0.727794,0.00504154,0.0100806,1430,0.00143,3.51464
2,1,Potentiostatic EIS,0.24806,3.51455,-0.0142801,794328,1.60271,86.9903,0.0841518,-1.6005,1.00856,0.00624425,0.0100077,1445,0.00181915,3.51455
2,1,Potentiostatic EIS,0.513735,3.5145,-0.0160243,630957.375,1.27949,86.4902,0.0783293,-1.27709,0.89364,0.00780464,0.00998594,1355,0.00214753,3.5145
2,1,Potentiostatic EIS,0.778679,3.51442,-0.0179813,501187.25,1.02562,86.5367,0.0619559,-1.02374,0.959195,0.00975471,0.0100046,1385,0.00276344,3.51442
2,1,Potentiostatic EIS,1.06362,3.51436,-0.0196934,398107,0.820451,85.5862,0.0631417,-0.818018,1.15053,0.0118795,0.00974711,1400,0.00351664,3.51436
2,1,Potentiostatic EIS,1.39832,3.51428,-0.0216634,316228,0.653927,85.1968,0.0547561,-0.65163,1.24441,0.0152107,0.00994666,1370,0.00433232,3.51428
2,1,Potentiostatic EIS,1.76381,3.51421,-0.0237123,251189,0.526554,84.3851,0.0515184,-0.524027,1.33019,0.0189522,0.00997937,1340,0.00533464,3.51421
2,1,Potentiostatic EIS,2.18585,3.5141,-0.026923,199526,0.420753,84.0485,0.0436268,-0.418486,1.55321,0.0236386,0.00994601,1355,0.00679109,3.5141
2,1,Potentiostatic EIS,2.65429,3.51403,-0.0288116,158489,0.33853,83.0007,0.0412526,-0.336007,1.58546,0.0288987,0.00978324,1360,0.00858102,3.51403
2,1,Potentiostatic EIS,3.23559,3.51388,-0.032868,125893,0.273105,82.1137,0.037472,-0.270522,1.7646,0.0365917,0.00999338,1370,0.0108823,3.51388
2,1,Potentiostatic EIS,3.91622,3.51379,-0.0351473,100000,0.219133,81.1399,0.0337513,-0.216518,1.86924,0.0454992,0.00997039,1370,0.0137,3.51379
2,1,Potentiostatic EIS,4.96762,3.51369,-0.0370589,79432.8,0.176579,79.7836,0.0313193,-0.173779,2.76354,0.0564901,0.00997497,1365,0.0171843,3.51369
2,1,Potentiostatic EIS,5.33778,3.51428,-0.0181345,63095.7,0.14209,78.4076,0.0285526,-0.139191,4.04385,0.0700322,0.00995085,1290,0.0204451,3.51428
2,1,Potentiostatic EIS,5.55949,3.51429,-0.0184422,50118.75,0.114925,76.4126,0.0269993,-0.111709,4.66108,0.0872672,0.0100292,1025,0.0204514,3.51429
2,1,Potentiostatic EIS,5.78425,3.51427,-0.0184677,39810.7,0.093133,74.0025,0.025667,-0.0895263,5.34592,0.107799,0.0100396,815,0.0204719,3.51427
2,1,Potentiostatic EIS,6.0111,3.51428,-0.0187847,31622.8,0.0760501,70.8487,0.0249493,-0.0718411,6.07373,0.132919,0.0101086,645,0.0203967,3.51428
2,1,Potentiostatic EIS,6.2324,3.51462,-0.00829693,25118.9,0.0624463,67.3402,0.0240579,-0.057626,6.65542,0.162403,0.0101415,510,0.0203034,3.51462
2,1,Potentiostatic EIS,6.45218,3.51466,-0.00674575,19952.6,0.0514864,63.128,0.0232718,-0.0459269,6.97749,0.196898,0.0101377,405,0.0202981,3.51466
2,1,Potentiostatic EIS,6.67291,3.5147,-0.00596205,15848.9,0.0428456,58.2585,0.0225405,-0.0364372,7.14289,0.234627,0.0100528,320,0.0201906,3.5147
2,1,Potentiostatic EIS,6.91424,3.51473,-0.00548235,12589.2,0.0366623,52.6184,0.0222585,-0.0291322,6.83306,0.271493,0.00995356,255,0.0202554,3.51473
2,1,Potentiostatic EIS,7.26388,3.51494,-0.00385317,9999.98,0.032054,46.7035,0.0219818,-0.0233294,3.07054,0.312066,0.010003,307,0.0307001,3.51494
2,1,Potentiostatic EIS,7.51967,3.51494,-0.00428607,7943.27,0.0285996,41.1027,0.0215508,-0.0188017,3.60005,0.355594,0.0101699,244,0.0307178,3.51494
2,1,Potentiostatic EIS,7.72993,3.515,-0.00266926,6309.57,0.0250743,34.3762,0.020695,-0.0141576,4.12265,0.37301,0.00935296,193,0.0305885,3.515
2,1,Potentiostatic EIS,7.94124,3.515,-0.00265102,5011.87,0.0237277,26.5126,0.0212324,-0.0105919,3.98629,0.442095,0.0104899,153,0.0305276,3.515
2,1,Potentiostatic EIS,8.15236,3.51503,-0.00198533,3981.07,0.0229887,20.5758,0.0215222,-0.00807926,3.80606,0.447969,0.0102982,122,0.0306451,3.51503
2,1,Potentiostatic EIS,8.36442,3.51508,-0.000381319,3162.27,0.0225253,15.6007,0.0216954,-0.00605775,3.51118,0.44879,0.0101091,97,0.0306742,3.51508
2,1,Potentiostatic EIS,8.53178,3.51508,-0.00028903,2511.88,0.0223179,11.3527,0.0218812,-0.00439324,3.15845,0.471582,0.0105247,77,0.0306543,3.51508
2,1,Potentiostatic EIS,8.70007,3.51509,4.57996e-05,1995.26,0.0222808,7.75258,0.0220771,-0.00300558,2.85637,0.462568,0.0103064,61,0.0305725,3.51509
2,1,Potentiostatic EIS,8.86777,3.51511,0.000310378,1584.89,0.0223798,4.68843,0.0223049,-0.00182926,2.64822,0.453055,0.0101393,48,0.030286,3.51511
2,1,Potentiostatic EIS,8.99267,3.5151,0.000103271,1258.92,0.0225784,2.25394,0.0225609,-0.000887976,2.42062,0.412085,0.00930422,38,0.0301845,3.5151
2,1,Potentiostatic EIS,9.11702,3.51511,0.000247336,999.999,0.0228857,0.197339,0.0228856,-7.88232e-05,2.29786,0.449702,0.0102918,30,0.03,3.51511
2,1,Potentiostatic EIS,9.24151,3.51511,0.000512773,794.328,0.0232486,-1.43975,0.0232412,0.000584139,2.23756,0.437623,0.0101741,24,0.0302142,3.51511
2,1,Potentiostatic EIS,9.3646,3.51515,0.00131276,630.956,0.0236586,-2.84614,0.0236295,0.00117475,2.18294,0.426682,0.0100947,19,0.030113,3.51515
2,1,Potentiostatic EIS,9.48884,3.51514,0.00128128,501.187,0.0241168,-3.86285,0.024062,0.00162471,2.08403,0.416724,0.01005,15,0.029929,3.51514
2,1,Potentiostatic EIS,9.56812,3.51515,0.00136493,398.107,0.0246223,-4.7,0.0245395,0.00201751,2.04919,0.354311,0.00872394,12,0.0301427,3.51515
2,1,Potentiostatic EIS,9.64643,3.51515,0.0012594,316.228,0.0251559,-5.33781,0.0250468,0.00234019,1.88527,0.366427,0.0092178,9,0.0284605,3.51515
2,1,Potentiostatic EIS,9.72691,3.51514,0.00118122,251.189,0.0256975,-5.79254,0.0255662,0.00259356,1.72546,0.3706,0.00952347,8,0.0318486,3.51514
2,1,Potentiostatic EIS,9.81607,3.51513,0.00111284,199.526,0.0262777,-6.09738,0.0261291,0.00279119,1.53735,0.369629,0.00971301,8,0.0400951,3.51513
2,1,Potentiostatic EIS,9.91702,3.51514,0.00100169,158.489,0.0268315,-6.14936,0.0266771,0.00287421,1.33045,0.365789,0.00981465,8,0.0504766,3.51514
2,1,Potentiostatic EIS,10.0336,3.51514,0.00119551,125.892,0.0273829,-6.14628,0.0272255,0.00293181,1.14682,0.360359,0.00986768,8,0.0635464,3.51514
2,1,Potentiostatic EIS,10.1627,3.51514,0.00130272,100,0.0279126,-6.06389,0.0277564,0.00294861,0.944794,0.354373,0.00989146,8,0.08,3.51514
2,1,Potentiostatic EIS,10.3132,3.51514,0.0013492,79.4327,0.0284357,-5.87215,0.0282865,0.00290923,0.765772,0.348318,0.00990467,8,0.100714,3.51514
2,1,Potentiostatic EIS,10.4916,3.51515,0.00141084,63.0956,0.0289217,-5.60042,0.0287836,0.00282247,0.63062,0.342431,0.00990368,8,0.126792,3.51515
2,1,Potentiostatic EIS,10.7057,3.51515,0.00188019,50.1186,0.0293826,-5.31522,0.0292562,0.00272186,0.505435,0.329339,0.00967683,8,0.159621,3.51515
2,1,Potentiostatic EIS,10.9644,3.51513,0.000665217,39.8107,0.0298188,-4.96568,0.0297069,0.00258109,0.413545,0.326181,0.00972634,8,0.200951,3.51513
2,1,Potentiostatic EIS,11.1066,3.51513,0.000274882,31.6228,0.0301883,-4.60379,0.0300909,0.00242306,0.363949,0.327228,0.00987851,2,0.0632456,3.51513
2,1,Potentiostatic EIS,11.269,3.51513,0.000761623,25.1188,0.0305597,-4.21326,0.0304771,0.00224519,0.277705,0.315354,0.00963714,2,0.0796217,3.51513
2,1,Potentiostatic EIS,11.4688,3.51513,0.00107554,19.9526,0.0308723,-3.82347,0.0308036,0.00205865,0.246277,0.315565,0.00974225,2,0.100238,3.51513
2,1,Potentiostatic EIS,11.7158,3.51513,0.000949374,15.8489,0.0311578,-3.46083,0.0311009,0.00188088,0.257183,0.314961,0.00981344,2,0.126192,3.51513
2,1,Potentiostatic EIS,12.0227,3.51512,0.000627246,12.5892,0.0313732,-3.10514,0.0313272,0.00169944,0.224307,0.314161,0.00985623,2,0.158866,3.51512
2,1,Potentiostatic EIS,12.4043,3.51513,0.000491026,9.99998,0.0315732,-2.81333,0.0315351,0.00154968,0.226292,0.312998,0.00988236,2,0.2,3.51513
2,1,Potentiostatic EIS,12.8802,3.51513,0.00029478,7.94328,0.0317416,-2.52585,0.0317108,0.00139886,0.234792,0.312328,0.0099138,2,0.251785,3.51513
2,1,Potentiostatic EIS,13.4747,3.51514,0.000432809,6.30957,0.0319048,-2.28362,0.0318795,0.00127128,0.186333,0.310732,0.00991385,2,0.316979,3.51514
2,1,Potentiostatic EIS,14.2172,3.51513,0.000357917,5.01186,0.0320473,-2.10418,0.0320257,0.00117667,0.205914,0.309869,0.00993045,2,0.399053,3.51513
2,1,Potentiostatic EIS,15.148,3.51514,0.000539667,3.98106,0.032147,-1.92461,0.0321289,0.00107964,0.225663,0.308965,0.00993228,2,0.502378,3.51514
2,1,Potentiostatic EIS,16.314,3.51514,0.000138781,3.16227,0.0322505,-1.84849,0.0322337,0.00104029,0.193237,0.308231,0.00994061,2,0.632458,3.51514
2,1,Potentiostatic EIS,17.7765,3.51515,7.01601e-05,2.51188,0.0323718,-1.76226,0.0323564,0.000995511,0.202279,0.307105,0.00994153,2,0.796216,3.51515
2,1,Potentiostatic EIS,19.6156,3.51515,0.00010618,1.99526,0.032521,-1.72705,0.0325062,0.000980123,0.21365,0.305661,0.00994035,2,1.00238,3.51515
2,1,Potentiostatic EIS,21.9252,3.51514,-0.000280216,1.58489,0.0325733,-1.72873,0.0325585,0.000982656,0.191407,0.305375,0.00994705,2,1.26192,3.51514
2,1,Potentiostatic EIS,24.8297,3.51514,-0.000446449,1.25892,0.0326427,-1.74351,0.0326276,0.00099316,0.206064,0.304585,0.00994245,2,1.58866,3.51514
2,1,Potentiostatic EIS,28.4817,3.51514,-8.09204e-05,0.999998,0.0327399,-1.80055,0.0327237,0.0010287,0.186176,0.303808,0.00994662,2,2,3.51514
2,1,Potentiostatic EIS,33.0762,3.51514,-0.000609406,0.794327,0.0329027,-1.86943,0.0328852,0.00107335,0.197378,0.302372,0.00994891,2,2.51785,3.51514
2,1,Potentiostatic EIS,38.8553,3.51514,-0.000360097,0.630956,0.0330165,-2.00743,0.0329963,0.00115654,0.17923,0.301433,0.00995226,2,3.16979,3.51514
2,1,Potentiostatic EIS,46.1286,3.51513,-8.58046e-05,0.501186,0.0331018,-2.14714,0.0330785,0.00124018,0.166296,0.300565,0.00994922,2,3.99054,3.51513
2,1,Potentiostatic EIS,55.2838,3.51514,-0.000786369,0.398106,0.0332085,-2.33861,0.0331809,0.00135508,0.186356,0.299485,0.00994546,2,5.02379,3.51514
2,1,Potentiostatic EIS,66.7995,3.51513,-7.73985e-05,0.316227,0.0333493,-2.58786,0.0333153,0.00150577,0.217036,0.298375,0.00995062,2,6.32457,3.51513
2,1,Potentiostatic EIS,81.2949,3.51513,-4.89761e-05,0.251188,0.0334714,-2.88902,0.0334289,0.00168701,0.191162,0.297255,0.00994954,2,7.96216,3.51513
2,1,Potentiostatic EIS,99.5387,3.51513,-0.000536454,0.199526,0.0336505,-3.1838,0.0335986,0.00186892,0.193567,0.295747,0.00995202,2,10.0238,3.51513
2,1,Potentiostatic EIS,122.51,3.51514,0.000540098,0.158489,0.0338455,-3.5808,0.0337794,0.00211385,0.170529,0.294056,0.00995243,2,12.6192,3.51514
2,1,Potentiostatic EIS,151.423,3.51513,0.000138559,0.125892,0.0340316,-4.03789,0.0339471,0.00239637,0.217023,0.292411,0.00995119,2,15.8866,3.51513
2,1,Potentiostatic EIS,187.815,3.51513,-0.000412699,0.0999997,0.0342245,-4.53151,0.0341176,0.00270399,0.199446,0.290526,0.00994313,2,20.0001,3.51513