File: Data/P190_02/EIS_08_P190_02_1/2_EIS_08_P190_02_1 20230913 140407.csv
Step number,Repeats,Step name,Elapsed Time  (s),DC Working Electrode (V),DC Current (A),Frequency (Hz),|Z| (Ohms),Phase (deg),Z' (Ohms),-Z" (Ohms),THD (%),Amplitude (A),Amplitude (V),No of Cycles,Duration of Each Frequency (s),IR Compensated DC Working Electrode (V)
2,1,Potentiostatic EIS,0,3.55744,-0.0131006,1000000,3.49905,88.9105,0.0665309,-3.49842,0.85376,0.00284278,0.00994706,1430,0.00143,3.55744
2,1,Potentiostatic EIS,0.229241,3.5574,-0.0139735,794328,2.79474,88.295,0.0831508,-2.7935,0.940966,0.00355063,0.00992322,1445,0.00181915,3.5574
2,1,Potentiostatic EIS,0.469225,3.55738,-0.0147196,630957.375,2.22665,87.9764,0.0786268,-2.22526,0.838707,0.00445461,0.00991886,1355,0.00214753,3.55738
2,1,Potentiostatic EIS,0.721025,3.55732,-0.0152939,501187.25,1.77446,87.9881,0.0622966,-1.77337,0.769838,0.0054502,0.00967123,1385,0.00276344,3.55732
2,1,Potentiostatic EIS,1.00071,3.55728,-0.0162796,398107,1.4165,87.2618,0.0676695,-1.41488,0.929562,0.00703231,0.00996126,1400,0.00351664,3.55728
2,1,Potentiostatic EIS,1.30349,3.55724,-0.0169954,316228,1.12592,86.9233,0.0604315,-1.1243,0.94668,0.00881778,0.00992813,1370,0.00433232,3.55724
2,1,Potentiostatic EIS,1.63755,3.55721,-0.0177035,251189,0.903212,86.3449,0.0575802,-0.901375,0.949849,0.0110437,0.0099748,1340,0.00533464,3.55721
2,1,Potentiostatic EIS,2.05069,3.55714,-0.0190612,199526,0.719295,86.161,0.0481596,-0.717681,1.06777,0.0138025,0.00992808,1355,0.00679109,3.55714
2,1,Potentiostatic EIS,2.51168,3.55709,-0.0197771,158489,0.577911,85.3321,0.0470304,-0.575994,1.16599,0.0172515,0.00996987,1360,0.00858102,3.55709
2,1,Potentiostatic EIS,3.13524,3.55703,-0.0211942,125893,0.463801,84.7818,0.0421821,-0.461879,1.35803,0.021509,0.00997592,1370,0.0108823,3.55703
2,1,Potentiostatic EIS,3.76838,3.55694,-0.0227084,100000,0.370132,84.1314,0.0378452,-0.368192,1.54753,0.026904,0.00995801,1370,0.0137,3.55694
2,1,Potentiostatic EIS,4.4446,3.55687,-0.0241531,79432.8,0.297626,83.1729,0.03538,-0.295516,1.93866,0.0335577,0.00998766,1365,0.0171843,3.55687
2,1,Potentiostatic EIS,4.69149,3.55677,-0.026052,63095.7,0.238283,82.3825,0.0315865,-0.236181,1.63925,0.0419256,0.00999019,1290,0.0204451,3.55677
2,1,Potentiostatic EIS,4.94615,3.5567,-0.0281761,50118.75,0.190182,80.8217,0.0303353,-0.187747,1.69333,0.0525063,0.00998729,1025,0.0204514,3.5567
2,1,Potentiostatic EIS,5.23662,3.5567,-0.0277817,39810.7,0.154026,79.5245,0.0280042,-0.151459,1.78017,0.0641733,0.00988433,815,0.0204719,3.5567
2,1,Potentiostatic EIS,5.57893,3.55722,-0.0150281,31622.8,0.124491,77.5528,0.0268328,-0.121565,4.84719,0.0803392,0.0100015,645,0.0203967,3.55722
2,1,Potentiostatic EIS,5.80131,3.55754,-0.00720231,25118.9,0.100689,75.429,0.0253314,-0.0974508,5.68907,0.0999609,0.010065,510,0.0203034,3.55754
2,1,Potentiostatic EIS,6.02278,3.55759,-0.00650184,19952.6,0.0813929,72.5775,0.0243702,-0.0776588,6.37951,0.123543,0.0100555,405,0.0202981,3.55759
2,1,Potentiostatic EIS,6.22639,3.55761,-0.0061181,15848.9,0.0659428,69.3086,0.0232998,-0.0616893,6.97463,0.147873,0.00975131,320,0.0201906,3.55761
2,1,Potentiostatic EIS,6.43096,3.55763,-0.00554842,12589.2,0.0543568,65.1606,0.022834,-0.0493282,7.20534,0.181524,0.00986701,255,0.0202554,3.55763
2,1,Potentiostatic EIS,6.69381,3.5576,-0.00555168,9999.98,0.045409,60.5113,0.0223526,-0.0395264,3.52363,0.22115,0.0100422,307,0.0307001,3.5576
2,1,Potentiostatic EIS,6.90967,3.55761,-0.00590812,7943.27,0.0384651,55.546,0.0217614,-0.0317176,4.33342,0.273586,0.0105235,244,0.0307178,3.55761
2,1,Potentiostatic EIS,7.12142,3.5576,-0.00580811,6309.57,0.0321578,49.7029,0.0207981,-0.0245268,4.99852,0.327438,0.0105297,193,0.0305885,3.5576
2,1,Potentiostatic EIS,7.33672,3.55762,-0.00509769,5011.87,0.0283827,41.5863,0.0212291,-0.0188389,5.12121,0.365847,0.0103837,153,0.0305276,3.55762
2,1,Potentiostatic EIS,7.54791,3.55765,-0.00441205,3981.07,0.025952,34.2629,0.0214484,-0.0146108,4.94712,0.39454,0.0102391,122,0.0306451,3.55765
2,1,Potentiostatic EIS,7.71724,3.55769,-0.00373925,3162.27,0.0243489,27.4792,0.0216018,-0.0112352,4.75221,0.354721,0.00863707,97,0.0306742,3.55769
2,1,Potentiostatic EIS,7.88582,3.55767,-0.0040117,2511.88,0.0233333,21.2825,0.021742,-0.00846922,4.02997,0.449337,0.0104845,77,0.0306543,3.55767
2,1,Potentiostatic EIS,8.05443,3.55768,-0.00406643,1995.26,0.0227844,15.7891,0.0219247,-0.00619958,3.55735,0.452457,0.010309,61,0.0305725,3.55768
2,1,Potentiostatic EIS,8.22228,3.5577,-0.00368306,1584.89,0.0225638,11.0547,0.0221451,-0.0043265,3.15826,0.449831,0.0101499,48,0.030286,3.5577
2,1,Potentiostatic EIS,8.34632,3.55772,-0.00315681,1258.92,0.0225766,7.09933,0.0224035,-0.00279024,2.78559,0.397693,0.00897857,38,0.0301845,3.55772
2,1,Potentiostatic EIS,8.47118,3.55773,-0.0030308,999.999,0.0227568,3.8219,0.0227062,-0.00151686,2.48571,0.452563,0.0102989,30,0.03,3.55773
2,1,Potentiostatic EIS,8.59391,3.55773,-0.00284053,794.328,0.0230614,1.07866,0.0230573,-0.000434132,2.21305,0.441819,0.010189,24,0.0302142,3.55773
2,1,Potentiostatic EIS,8.7183,3.55773,-0.00252568,630.956,0.0234468,-1.18303,0.0234418,0.000484087,2.11243,0.430656,0.0100975,19,0.030113,3.55773
2,1,Potentiostatic EIS,8.84195,3.55772,-0.00252514,501.187,0.0239072,-3.12342,0.0238716,0.00130263,2.03526,0.420578,0.0100548,15,0.029929,3.55772
2,1,Potentiostatic EIS,8.9225,3.55773,-0.00260085,398.107,0.0244445,-4.68418,0.0243629,0.00199622,2.01342,0.356257,0.00870852,12,0.0301427,3.55773
2,1,Potentiostatic EIS,9.00209,3.55773,-0.00238066,316.228,0.0250119,-6.08023,0.0248712,0.00264928,1.85282,0.369738,0.00924784,9,0.0284605,3.55773
2,1,Potentiostatic EIS,9.08265,3.55773,-0.00257995,251.189,0.0256781,-7.25008,0.0254728,0.00324058,1.69429,0.37357,0.00959254,8,0.0318486,3.55773
2,1,Potentiostatic EIS,9.17289,3.55773,-0.00229411,199.526,0.0264037,-8.22087,0.0261324,0.00377546,1.53605,0.370898,0.00979309,8,0.0400951,3.55773
2,1,Potentiostatic EIS,9.27269,3.55773,-0.00216658,158.489,0.0271809,-8.96894,0.0268486,0.00423747,1.31473,0.364379,0.00990415,8,0.0504766,3.55773
2,1,Potentiostatic EIS,9.38619,3.55773,-0.00196656,125.892,0.028022,-9.60948,0.0276288,0.00467776,1.14923,0.355247,0.00995473,8,0.0635464,3.55773
2,1,Potentiostatic EIS,9.51559,3.55774,-0.00206382,100,0.0289421,-10.0989,0.0284936,0.00507491,0.920122,0.344617,0.00997392,8,0.08,3.55774
2,1,Potentiostatic EIS,9.66619,3.55774,-0.00211789,79.4327,0.0299131,-10.3466,0.0294267,0.00537247,0.783952,0.333501,0.00997605,8,0.100714,3.55774
2,1,Potentiostatic EIS,9.84567,3.55773,-0.00247318,63.0956,0.0309112,-10.4497,0.0303985,0.00560644,0.640589,0.322605,0.0099721,8,0.126792,3.55773
2,1,Potentiostatic EIS,10.0602,3.55774,-0.00193462,50.1186,0.0319095,-10.4838,0.0313768,0.00580618,0.521792,0.307496,0.00981205,8,0.159621,3.55774
2,1,Potentiostatic EIS,10.3201,3.55773,-0.00292313,39.8107,0.0329301,-10.2626,0.0324032,0.00586684,0.408795,0.298517,0.00983019,8,0.200951,3.55773
2,1,Potentiostatic EIS,10.4633,3.55774,-0.00403967,31.6228,0.0339152,-10.07,0.0333928,0.00593011,0.341855,0.292656,0.0099256,2,0.0632456,3.55774
2,1,Potentiostatic EIS,10.6255,3.55774,-0.0029682,25.1188,0.0349452,-9.55484,0.0344604,0.00580061,0.274557,0.276703,0.00966926,2,0.0796217,3.55774
2,1,Potentiostatic EIS,10.8251,3.55774,-0.00335716,19.9526,0.0358922,-9.10394,0.0354401,0.00567908,0.247788,0.27202,0.00976335,2,0.100238,3.55774
2,1,Potentiostatic EIS,11.0722,3.55773,-0.00324849,15.8489,0.0368031,-8.52394,0.0363966,0.00545505,0.216213,0.267089,0.00982971,2,0.126192,3.55773
2,1,Potentiostatic EIS,11.3785,3.55773,-0.00338931,12.5892,0.0376448,-7.89593,0.0372879,0.00517142,0.213096,0.26226,0.00987268,2,0.158866,3.55773
2,1,Potentiostatic EIS,11.7598,3.55774,-0.00333877,9.99998,0.0384179,-7.21949,0.0381134,0.00482801,0.192245,0.258042,0.00991344,2,0.2,3.55774
2,1,Potentiostatic EIS,12.2346,3.55774,-0.0034158,7.94328,0.0390977,-6.55763,0.038842,0.00446506,0.216885,0.253813,0.00992352,2,0.251785,3.55774
2,1,Potentiostatic EIS,12.8278,3.55775,-0.00321181,6.30957,0.0396995,-5.91384,0.0394882,0.00409035,0.247386,0.250515,0.00994533,2,0.316979,3.55775
2,1,Potentiostatic EIS,13.5708,3.55775,-0.00328005,5.01186,0.0402094,-5.31531,0.0400365,0.00372487,0.197632,0.247329,0.00994498,2,0.399053,3.55775
2,1,Potentiostatic EIS,14.4978,3.55775,-0.00353638,3.98106,0.0406611,-4.75707,0.040521,0.00337207,0.204651,0.244644,0.00994747,2,0.502378,3.55775
2,1,Potentiostatic EIS,15.6626,3.55775,-0.00340965,3.16227,0.0410359,-4.28247,0.0409214,0.0030643,0.200164,0.242609,0.00995568,2,0.632458,3.55775
2,1,Potentiostatic EIS,17.1251,3.55774,-0.00319928,2.51188,0.0413555,-3.87385,0.041261,0.00279397,0.187759,0.240789,0.00995796,2,0.796216,3.55774
2,1,Potentiostatic EIS,18.9639,3.55774,-0.00334463,1.99526,0.0416526,-3.52377,0.0415738,0.00256008,0.166804,0.239073,0.009958,2,1.00238,3.55774
2,1,Potentiostatic EIS,21.2734,3.55774,-0.00334992,1.58489,0.0419168,-3.21422,0.0418509,0.00235025,0.170478,0.237681,0.00996285,2,1.26192,3.55774
2,1,Potentiostatic EIS,24.1776,3.55774,-0.00313493,1.25892,0.0421434,-2.98096,0.0420864,0.00219163,0.154293,0.236294,0.00995825,2,1.58866,3.55774
2,1,Potentiostatic EIS,27.8296,3.55774,-0.00304124,0.999998,0.042357,-2.82263,0.0423056,0.00208584,0.170797,0.235285,0.00996598,2,2,3.55774
2,1,Potentiostatic EIS,32.4238,3.55774,-0.00308579,0.794327,0.042561,-2.69809,0.0425138,0.00200348,0.164503,0.23395,0.00995714,2,2.51785,3.55774
2,1,Potentiostatic EIS,38.2028,3.55774,-0.00277678,0.630956,0.0427692,-2.64126,0.0427238,0.00197091,0.145387,0.2328,0.00995667,2,3.16979,3.55774
2,1,Potentiostatic EIS,45.4777,3.55774,-0.00301325,0.501186,0.042971,-2.60221,0.0429267,0.00195095,0.13214,0.231817,0.00996141,2,3.99054,3.55774
2,1,Potentiostatic EIS,54.6318,3.55774,-0.00269486,0.398106,0.0431316,-2.63399,0.043086,0.00198214,0.192565,0.231081,0.00996688,2,5.02379,3.55774
2,1,Potentiostatic EIS,66.1473,3.55773,-0.00234021,0.316227,0.0433505,-2.68943,0.0433027,0.0020341,0.178727,0.229793,0.00996164,2,6.32457,3.55773
2,1,Potentiostatic EIS,80.6432,3.55773,-0.00258184,0.251188,0.0435597,-2.81344,0.0435072,0.00213808,0.176756,0.228721,0.009963,2,7.96216,3.55773
2,1,Potentiostatic EIS,98.8865,3.55774,-0.00195832,0.199526,0.0437656,-2.98553,0.0437062,0.00227947,0.160136,0.227676,0.00996438,2,10.0238,3.55774
2,1,Potentiostatic EIS,121.858,3.55773,-0.00191532,0.158489,0.0440089,-3.19874,0.0439404,0.00245568,0.170853,0.226418,0.00996442,2,12.6192,3.55773
2,1,Potentiostatic EIS,150.771,3.55774,-0.00226927,0.125892,0.0442506,-3.46821,0.0441696,0.00267693,0.177233,0.225145,0.00996278,2,15.8866,3.55774
2,1,Potentiostatic EIS,187.161,3.55774,-0.00154112,0.0999997,0.0445527,-3.78618,0.0444554,0.00294196,0.184261,0.223772,0.00996965,2,20.0001,3.55774