File: Data/P190/P190_04/EIS_08_P190_04_3/2_EIS_08_P190_04_3 20231019 133221.csv
Step number,Repeats,Step name,Elapsed Time  (s),DC Working Electrode (V),DC Current (A),Frequency (Hz),|Z| (Ohms),Phase (deg),Z' (Ohms),-Z" (Ohms),THD (%),Amplitude (A),Amplitude (V),No of Cycles,Duration of Each Frequency (s),IR Compensated DC Working Electrode (V)
2,1,Potentiostatic EIS,60.3001,3.48763,-0.012464,1000000,3.3335,88.6476,0.0786744,-3.33257,1.13707,0.00298662,0.00995584,1430,0.00143,3.48763
2,1,Potentiostatic EIS,60.526,3.4876,-0.0135032,891251,2.97597,88.0775,0.0998359,-2.9743,1.10206,0.00331683,0.00987074,1310,0.00146984,3.4876
2,1,Potentiostatic EIS,60.7555,3.48759,-0.0135136,794328,2.66883,88.073,0.0897419,-2.66732,1.15328,0.00371564,0.00991675,1445,0.00181915,3.48759
2,1,Potentiostatic EIS,60.9882,3.48757,-0.0137516,707946,2.38645,88.0632,0.0806555,-2.38508,1.25899,0.00416003,0.00992769,1340,0.0018928,3.48757
2,1,Potentiostatic EIS,61.2271,3.48755,-0.0147512,630957.25,2.1285,87.6573,0.0870041,-2.12672,1.19126,0.00465933,0.00991741,1355,0.00214753,3.48755
2,1,Potentiostatic EIS,61.4752,3.48753,-0.0151037,562341.25,1.90187,87.5024,0.0828805,-1.90006,1.26335,0.00514569,0.00978662,1360,0.00241846,3.48753
2,1,Potentiostatic EIS,61.749,3.48752,-0.0152619,501187,1.70512,87.5727,0.0722139,-1.70359,1.12855,0.00585931,0.00999078,1385,0.00276344,3.48752
2,1,Potentiostatic EIS,62.0249,3.48752,-0.0156958,446684,1.51829,87.0207,0.0789129,-1.51624,1.24184,0.0065535,0.00995017,1360,0.00304466,3.48752
2,1,Potentiostatic EIS,62.3116,3.48749,-0.0163093,398107,1.36385,86.839,0.0752042,-1.36178,1.15372,0.00730737,0.00996618,1400,0.00351664,3.48749
2,1,Potentiostatic EIS,62.6044,3.48747,-0.016781,354813,1.21442,86.5106,0.0739134,-1.21217,1.25441,0.00819837,0.00995632,1365,0.00384709,3.48747
2,1,Potentiostatic EIS,62.9091,3.48744,-0.0173139,316228,1.08426,86.2995,0.0699796,-1.082,1.19468,0.00916929,0.00994189,1370,0.00433232,3.48744
2,1,Potentiostatic EIS,63.2303,3.4874,-0.018339,281838.25,0.971481,85.9925,0.067894,-0.969105,1.17255,0.0102508,0.00995846,1370,0.00486094,3.4874
2,1,Potentiostatic EIS,63.725,3.48739,-0.0184089,251189,0.870345,85.7199,0.0649552,-0.867918,1.23262,0.0114543,0.00996925,1340,0.00533464,3.48739
2,1,Potentiostatic EIS,64.0826,3.48736,-0.0195906,223872,0.77882,85.7594,0.0575897,-0.776688,1.21296,0.0127201,0.00990668,1360,0.0060749,3.48736
2,1,Potentiostatic EIS,64.4602,3.48733,-0.0201931,199526,0.694229,85.6179,0.0530448,-0.6922,1.24495,0.0139699,0.00969825,1355,0.00679109,3.48733
2,1,Potentiostatic EIS,64.8999,3.48732,-0.0203942,177828,0.623699,85.1611,0.0526117,-0.621476,1.47929,0.0159487,0.00994721,1355,0.00761973,3.48732
2,1,Potentiostatic EIS,65.3628,3.48726,-0.0219384,158489,0.559605,84.641,0.052265,-0.557159,1.60106,0.0178073,0.00996507,1360,0.00858103,3.48726
2,1,Potentiostatic EIS,65.8564,3.48724,-0.0221884,141254,0.50158,84.6224,0.0470075,-0.499372,1.42084,0.0198793,0.00997104,1355,0.00959267,3.48724
2,1,Potentiostatic EIS,66.6193,3.48719,-0.0231289,125892,0.450157,84.0207,0.0468927,-0.447707,1.51946,0.0221734,0.00998149,1370,0.0108823,3.48719
2,1,Potentiostatic EIS,67.196,3.48715,-0.0245468,112202,0.40352,83.6795,0.0444233,-0.401067,1.57656,0.0247756,0.00999745,1360,0.012121,3.48715
2,1,Potentiostatic EIS,67.7642,3.48713,-0.0248896,99999.9,0.359882,83.2506,0.0422957,-0.357388,1.62336,0.0276725,0.00995883,1370,0.0137,3.48713
2,1,Potentiostatic EIS,68.3814,3.48709,-0.0263048,89125.1,0.323466,82.8782,0.0401029,-0.32097,1.711,0.0309528,0.0100123,1365,0.0153156,3.48709
2,1,Potentiostatic EIS,69.0468,3.48705,-0.0265511,79432.8,0.290394,82.5387,0.0377097,-0.287935,2.16045,0.0344167,0.00999452,1365,0.0171843,3.48705
2,1,Potentiostatic EIS,69.7747,3.48701,-0.0275986,70794.5,0.260586,81.9069,0.0366858,-0.257991,1.66078,0.0383081,0.0099826,1370,0.0193518,3.48701
2,1,Potentiostatic EIS,70.0247,3.487,-0.0290102,63095.7,0.233133,81.6045,0.0340389,-0.230635,1.9032,0.0427725,0.0099717,1290,0.0204451,3.487
2,1,Potentiostatic EIS,70.2774,3.48692,-0.0302414,56234.1,0.209859,80.8454,0.0333881,-0.207185,1.88548,0.0476045,0.00999027,1150,0.0204502,3.48692
2,1,Potentiostatic EIS,70.5315,3.48694,-0.0307963,50118.7,0.187341,80.2412,0.0317547,-0.184631,1.84186,0.0529152,0.00991329,1025,0.0204515,3.48694
2,1,Potentiostatic EIS,70.8735,3.48693,-0.0301507,44668.3,0.168567,79.307,0.0312772,-0.16564,1.908,0.0587894,0.00991013,910,0.0203724,3.48693
2,1,Potentiostatic EIS,71.1096,3.48692,-0.0305163,39810.7,0.151261,78.6603,0.0297417,-0.148308,1.99317,0.0652012,0.00986268,815,0.0204719,3.48692
2,1,Potentiostatic EIS,71.4425,3.48731,-0.0170435,35481.3,0.135855,77.8955,0.0284882,-0.132835,4.04617,0.0723215,0.00982512,725,0.0204333,3.48731
2,1,Potentiostatic EIS,71.6499,3.48738,-0.0138043,31622.8,0.122972,76.7504,0.0281845,-0.119699,4.97196,0.0792063,0.00974041,645,0.0203967,3.48738
2,1,Potentiostatic EIS,71.8515,3.48738,-0.0138145,28183.8,0.10966,76.0537,0.0264293,-0.106427,5.19411,0.0882387,0.00967612,575,0.0204018,3.48738
2,1,Potentiostatic EIS,72.0752,3.48775,-0.00278944,25118.8,0.099627,74.5984,0.0264592,-0.0960492,5.56782,0.100892,0.0100517,510,0.0203035,3.48775
2,1,Potentiostatic EIS,72.2966,3.48776,-0.0026953,22387.2,0.0891487,73.4234,0.0254338,-0.0854436,6.07731,0.11181,0.00996771,455,0.0203241,3.48776
2,1,Potentiostatic EIS,72.5026,3.48773,-0.00232855,19952.6,0.0809435,71.91,0.0251338,-0.0769424,6.23743,0.120615,0.00976283,405,0.0202981,3.48773
2,1,Potentiostatic EIS,72.7093,3.48778,-0.00186371,17782.8,0.0730869,70.446,0.0244619,-0.0688717,6.63543,0.133571,0.00976363,360,0.0202443,3.48778
2,1,Potentiostatic EIS,72.9119,3.48778,-0.00160147,15848.9,0.0658328,68.7232,0.023889,-0.0613456,7.00342,0.148347,0.00976629,320,0.0201906,3.48778
2,1,Potentiostatic EIS,73.1165,3.48783,-0.00137539,14125.4,0.0601715,66.7065,0.0237943,-0.055267,6.96617,0.163549,0.00984106,285,0.0201765,3.48783
2,1,Potentiostatic EIS,73.3188,3.48782,-0.0013926,12589.2,0.0545372,64.8594,0.0231697,-0.0493708,7.03779,0.181191,0.00988145,255,0.0202554,3.48782
2,1,Potentiostatic EIS,73.5219,3.48779,-0.00126731,11220.2,0.049799,62.2764,0.0231668,-0.0440822,7.03389,0.197839,0.00985202,225,0.0200532,3.48779
2,1,Potentiostatic EIS,73.7817,3.48801,-0.00107833,9999.98,0.0456699,60.5565,0.0224498,-0.0397712,3.46458,0.219426,0.0100212,307,0.0307001,3.48801
2,1,Potentiostatic EIS,73.9935,3.48801,-0.00123926,8912.5,0.042018,58.3182,0.0220679,-0.0357564,3.8784,0.242681,0.010197,273,0.0306311,3.48801
2,1,Potentiostatic EIS,74.2059,3.48801,-0.0014746,7943.27,0.0387866,56.244,0.021552,-0.0322476,4.26366,0.2735,0.0106081,244,0.0307178,3.48801
2,1,Potentiostatic EIS,74.4201,3.488,-0.00176243,7079.45,0.0353581,54.1363,0.0207149,-0.0286547,4.64613,0.298586,0.0105574,217,0.0306521,3.488
2,1,Potentiostatic EIS,74.6305,3.48803,-0.000954989,6309.57,0.032283,50.4646,0.0205499,-0.0248976,4.94994,0.326502,0.0105404,193,0.0305885,3.48803
2,1,Potentiostatic EIS,74.8424,3.48803,-0.000798748,5623.41,0.0301485,46.7031,0.0206752,-0.0219424,5.06982,0.346103,0.0104345,172,0.0305864,3.48803
2,1,Potentiostatic EIS,75.0526,3.48805,-0.000598344,5011.87,0.0284908,43.0373,0.0208242,-0.0194442,5.09154,0.363921,0.0103684,153,0.0305276,3.48805
2,1,Potentiostatic EIS,75.2639,3.48804,-0.000695471,4466.83,0.0270671,39.5746,0.0208632,-0.0172439,5.03028,0.380741,0.0103055,137,0.0306705,3.48804
2,1,Potentiostatic EIS,75.4766,3.48804,-0.000509613,3981.07,0.0258525,36.2097,0.0208594,-0.0152722,4.94856,0.396105,0.0102403,122,0.0306451,3.48804
2,1,Potentiostatic EIS,75.6904,3.48807,0.0001624,3548.13,0.024849,33.0008,0.02084,-0.013534,4.78613,0.408486,0.0101505,108,0.0304386,3.48807
2,1,Potentiostatic EIS,75.8577,3.4881,0.00104234,3162.27,0.0240263,29.8698,0.0208346,-0.0119658,4.72623,0.358758,0.0086196,97,0.0306742,3.4881
2,1,Potentiostatic EIS,76.0244,3.4881,0.000981698,2818.38,0.0233438,26.7837,0.0208394,-0.0105193,4.48083,0.404011,0.00943117,86,0.030514,3.4881
2,1,Potentiostatic EIS,76.1917,3.48808,0.000571413,2511.88,0.0227922,23.9012,0.0208377,-0.0092345,4.14703,0.454057,0.010349,77,0.0306543,3.48808
2,1,Potentiostatic EIS,76.3592,3.48809,0.000707926,2238.72,0.022367,21.0894,0.0208689,-0.0080482,3.92167,0.466175,0.0104269,68,0.0303745,3.48809
2,1,Potentiostatic EIS,76.5267,3.48808,0.000448766,1995.26,0.0220439,18.5064,0.020904,-0.00699696,3.66727,0.469165,0.0103422,61,0.0305725,3.48808
2,1,Potentiostatic EIS,76.693,3.48808,0.000446845,1778.28,0.0217841,16.058,0.0209341,-0.00602571,3.42559,0.470505,0.0102495,54,0.0303664,3.48808
2,1,Potentiostatic EIS,76.8599,3.4881,0.000933935,1584.89,0.0216262,13.7739,0.0210043,-0.00514902,3.22753,0.47054,0.010176,48,0.030286,3.4881
2,1,Potentiostatic EIS,77.0268,3.48812,0.00143785,1412.53,0.0215206,11.6795,0.021075,-0.00435656,2.97287,0.469296,0.0100995,43,0.0304417,3.48812
2,1,Potentiostatic EIS,77.1513,3.48811,0.00109742,1258.92,0.0214516,9.81902,0.0211374,-0.00365829,2.86549,0.402285,0.00862967,38,0.0301845,3.48811
2,1,Potentiostatic EIS,77.2751,3.48813,0.00159796,1122.02,0.0214395,8.05489,0.0212279,-0.00300413,2.64357,0.445824,0.00955822,34,0.0303026,3.48813
2,1,Potentiostatic EIS,77.3973,3.48812,0.00126799,999.999,0.02148,6.45639,0.0213438,-0.00241536,2.45868,0.480891,0.0103296,30,0.03,3.48812
2,1,Potentiostatic EIS,77.5211,3.48811,0.00122242,891.25,0.0215388,4.9893,0.0214572,-0.00187322,2.41007,0.476064,0.0102538,27,0.0302945,3.48811
2,1,Potentiostatic EIS,77.644,3.48814,0.0020644,794.328,0.0216379,3.62077,0.0215947,-0.00136648,2.25557,0.470681,0.0101845,24,0.0302142,3.48814
2,1,Potentiostatic EIS,77.7669,3.48814,0.00228734,707.945,0.0217549,2.44627,0.0217351,-0.000928555,2.14602,0.46657,0.0101502,21,0.0296633,3.48814
2,1,Potentiostatic EIS,77.8896,3.48815,0.00237923,630.956,0.0218825,1.35634,0.0218763,-0.000517968,2.07315,0.462164,0.0101133,19,0.030113,3.48815
2,1,Potentiostatic EIS,78.0132,3.48815,0.0022606,562.34,0.0220328,0.391264,0.0220323,-0.000150458,2.05436,0.457553,0.0100812,17,0.0302308,3.48815
2,1,Potentiostatic EIS,78.1364,3.48813,0.00180631,501.185,0.0222164,-0.479322,0.0222156,0.000185854,1.94766,0.452844,0.0100605,15,0.029929,3.48813
2,1,Potentiostatic EIS,78.2606,3.48814,0.00199789,446.683,0.0224173,-1.26021,0.0224119,0.000493026,1.88412,0.448204,0.0100475,13,0.0291034,3.48814
2,1,Potentiostatic EIS,78.3834,3.48814,0.00167675,398.107,0.0226046,-1.92895,0.0225918,0.000760873,1.8488,0.444091,0.0100385,12,0.0301427,3.48814
2,1,Potentiostatic EIS,78.4624,3.48815,0.00233124,354.813,0.0228172,-2.54897,0.0227946,0.00101475,1.86195,0.38357,0.008752,10,0.0281839,3.48815
2,1,Potentiostatic EIS,78.5405,3.48814,0.00218157,316.227,0.0230241,-3.09545,0.0229905,0.00124329,1.77643,0.391163,0.00900618,9,0.0284606,3.48814
2,1,Potentiostatic EIS,78.6192,3.48815,0.00228328,281.838,0.0232672,-3.61436,0.0232209,0.00146678,1.72112,0.396114,0.00921645,8,0.0283851,3.48815
2,1,Potentiostatic EIS,78.7005,3.48814,0.00230144,251.188,0.023488,-3.95664,0.0234321,0.00162071,1.64561,0.399223,0.00937697,8,0.0318487,3.48814
2,1,Potentiostatic EIS,78.7853,3.48814,0.00246195,223.872,0.0237373,-4.32588,0.0236696,0.00179048,1.55137,0.400658,0.00951052,8,0.0357347,3.48814
2,1,Potentiostatic EIS,78.8742,3.48815,0.00249372,199.526,0.0239852,-4.57557,0.0239088,0.00191339,1.46368,0.400804,0.00961338,8,0.0400951,3.48815
2,1,Potentiostatic EIS,78.9681,3.48814,0.00246687,177.828,0.0242452,-4.81334,0.0241597,0.00203441,1.402,0.399873,0.009695,8,0.0449874,3.48814
2,1,Potentiostatic EIS,79.0679,3.48814,0.00242403,158.489,0.0244703,-4.98395,0.0243778,0.0021259,1.27898,0.398283,0.00974611,8,0.0504767,3.48814
2,1,Potentiostatic EIS,79.1732,3.48813,0.00192502,141.253,0.0247261,-5.11423,0.0246276,0.00220412,1.21204,0.396136,0.00979488,8,0.0566359,3.48813
2,1,Potentiostatic EIS,79.2858,3.48813,0.00204861,125.892,0.0249486,-5.2634,0.0248434,0.00228865,1.101,0.39352,0.00981778,8,0.0635464,3.48813
2,1,Potentiostatic EIS,79.4056,3.48814,0.00201611,112.201,0.0251969,-5.30006,0.0250892,0.00232748,1.03319,0.390735,0.0098453,8,0.0713003,3.48814
2,1,Potentiostatic EIS,79.5369,3.48814,0.00228984,99.9997,0.0254379,-5.33359,0.0253277,0.00236456,0.903827,0.387629,0.00986046,8,0.0800003,3.48814
2,1,Potentiostatic EIS,79.6767,3.48814,0.00255941,89.1248,0.0256782,-5.33984,0.0255667,0.00238968,0.852898,0.38449,0.009873,8,0.0897617,3.48814
2,1,Potentiostatic EIS,79.8278,3.48815,0.00227579,79.4325,0.025898,-5.28793,0.0257878,0.00238678,0.784666,0.381422,0.00987808,8,0.100714,3.48815
2,1,Potentiostatic EIS,79.9924,3.48814,0.00224635,70.7943,0.0261278,-5.27118,0.0260173,0.00240035,0.700085,0.378334,0.00988504,8,0.113003,3.48814
2,1,Potentiostatic EIS,80.1714,3.48814,0.00222829,63.0956,0.0263424,-5.21122,0.0262335,0.00239262,0.644333,0.375379,0.00988839,8,0.126792,3.48814
2,1,Potentiostatic EIS,80.3669,3.48815,0.00242942,56.2341,0.0265683,-5.14202,0.0264614,0.00238118,0.570919,0.364529,0.00968493,8,0.142263,3.48815
2,1,Potentiostatic EIS,80.5825,3.48814,0.00235385,50.1186,0.026763,-5.0372,0.0266596,0.00234986,0.507093,0.36262,0.00970479,8,0.159621,3.48814
2,1,Potentiostatic EIS,80.8178,3.48815,0.00230944,44.6682,0.0269544,-4.95181,0.0268538,0.00232664,0.456584,0.36072,0.00972298,8,0.179098,3.48815
2,1,Potentiostatic EIS,81.0756,3.48813,0.0019523,39.8106,0.0271515,-4.79343,0.0270565,0.00226887,0.414594,0.358646,0.00973776,8,0.200952,3.48813
2,1,Potentiostatic EIS,81.3603,3.48814,0.00227076,35.4812,0.0273274,-4.65631,0.0272372,0.0022184,0.379219,0.357004,0.00975597,8,0.225471,3.48814
2,1,Potentiostatic EIS,81.503,3.48814,0.002193,31.6227,0.0275409,-4.47469,0.0274569,0.0021487,0.38563,0.358872,0.00988366,2,0.0632458,3.48814
2,1,Potentiostatic EIS,81.6482,3.48814,0.00182259,28.1838,0.0276895,-4.38663,0.0276084,0.00211787,0.313672,0.357237,0.00989174,2,0.0709628,3.48814
2,1,Potentiostatic EIS,81.8112,3.48815,0.00196446,25.1188,0.0278571,-4.2022,0.0277822,0.00204127,0.31233,0.345707,0.00963039,2,0.0796217,3.48815
2,1,Potentiostatic EIS,81.9918,3.48815,0.00183942,22.3871,0.0280082,-4.04848,0.0279383,0.00197739,0.305964,0.346224,0.00969732,2,0.0893371,3.48815
2,1,Potentiostatic EIS,82.1912,3.48815,0.00237845,19.9525,0.0281592,-3.93103,0.0280929,0.00193047,0.240991,0.345881,0.00973973,2,0.100238,3.48815
2,1,Potentiostatic EIS,82.4137,3.48815,0.00198783,17.7828,0.0282958,-3.7688,0.0282346,0.0018599,0.257819,0.345774,0.00978402,2,0.112468,3.48815
2,1,Potentiostatic EIS,82.661,3.48816,0.00211514,15.8489,0.0284154,-3.61463,0.0283589,0.00179146,0.274294,0.345262,0.00981066,2,0.126192,3.48816
2,1,Potentiostatic EIS,82.9363,3.48816,0.00195118,14.1253,0.0285422,-3.42938,0.0284911,0.00170735,0.466175,0.344766,0.00984038,2,0.14159,3.48816
2,1,Potentiostatic EIS,83.2431,3.48814,0.00147139,12.5892,0.0286649,-3.29855,0.0286174,0.00164934,1.61715,0.343593,0.00984903,2,0.158866,3.48814
2,1,Potentiostatic EIS,83.5854,3.48814,0.00111097,11.2201,0.0287676,-3.15272,0.028724,0.00158215,0.374079,0.342977,0.00986663,2,0.178251,3.48814
2,1,Potentiostatic EIS,83.9671,3.48815,0.00136065,9.99996,0.0288727,-3.01059,0.0288329,0.00151641,0.271593,0.34269,0.00989443,2,0.200001,3.48815
2,1,Potentiostatic EIS,84.3934,3.48815,0.000968673,8.91248,0.028978,-2.89137,0.0289411,0.00146172,0.23412,0.341354,0.00989173,2,0.224404,3.48815
2,1,Potentiostatic EIS,84.8696,3.48814,0.00101712,7.94325,0.0290544,-2.76163,0.0290206,0.00139987,0.217368,0.341029,0.00990839,2,0.251786,3.48814
2,1,Potentiostatic EIS,85.4016,3.48815,0.0011401,7.07944,0.0291416,-2.66413,0.0291101,0.00135453,0.246756,0.339977,0.00990749,2,0.282508,3.48815
2,1,Potentiostatic EIS,85.9968,3.48815,0.00115937,6.30955,0.0292295,-2.56086,0.0292003,0.00130599,0.226318,0.339219,0.00991517,2,0.31698,3.48815
2,1,Potentiostatic EIS,86.6627,3.48815,0.000764912,5.62339,0.0292815,-2.45937,0.0292545,0.00125649,0.23665,0.338736,0.00991872,2,0.355657,3.48815
2,1,Potentiostatic EIS,87.4078,3.48816,0.000864351,5.01185,0.0293645,-2.38107,0.0293391,0.00121996,0.227663,0.337871,0.00992139,2,0.399054,3.48816
2,1,Potentiostatic EIS,88.2397,3.48815,0.000880934,4.46682,0.0294332,-2.30973,0.0294093,0.0011862,0.216665,0.337294,0.00992764,2,0.447745,3.48815
2,1,Potentiostatic EIS,89.1714,3.48816,0.000931477,3.98106,0.0294881,-2.23523,0.0294657,0.0011501,0.215984,0.336659,0.00992746,2,0.502378,3.48816
2,1,Potentiostatic EIS,90.2141,3.48816,0.00077372,3.54812,0.0295611,-2.17758,0.0295398,0.00112323,0.197239,0.335634,0.00992171,2,0.563679,3.48816
2,1,Potentiostatic EIS,91.3805,3.48815,0.000789589,3.16227,0.0296184,-2.12425,0.0295981,0.00109786,0.190178,0.335293,0.00993086,2,0.632458,3.48815
2,1,Potentiostatic EIS,92.6853,3.48816,0.000752517,2.81837,0.029685,-2.0906,0.0296653,0.0010829,0.207221,0.334606,0.00993279,2,0.70963,3.48816
2,1,Potentiostatic EIS,94.1478,3.48816,0.000506796,2.51188,0.0297345,-2.06485,0.0297152,0.00107135,0.209378,0.334049,0.00993278,2,0.796217,3.48816
2,1,Potentiostatic EIS,95.7886,3.48817,0.000700124,2.23872,0.0297949,-2.04154,0.029776,0.00106142,0.194419,0.333568,0.00993862,2,0.893369,3.48817
2,1,Potentiostatic EIS,97.6267,3.48816,0.00042774,1.99526,0.0298466,-2.03914,0.0298277,0.00106201,0.203886,0.332927,0.00993677,2,1.00238,3.48816
2,1,Potentiostatic EIS,99.6875,3.48815,0.000142927,1.77827,0.0299061,-2.01999,0.0298876,0.00105413,0.21663,0.332235,0.00993588,2,1.12469,3.48815
2,1,Potentiostatic EIS,101.997,3.48816,0.000429178,1.58489,0.029968,-2.02585,0.0299493,0.00105938,0.193568,0.331508,0.00993461,2,1.26192,3.48816
2,1,Potentiostatic EIS,104.587,3.48815,0.000319474,1.41253,0.0300238,-2.01951,0.0300052,0.00105803,0.200298,0.331223,0.0099446,2,1.4159,3.48815
2,1,Potentiostatic EIS,107.492,3.48815,0.000167635,1.25892,0.0300836,-2.05595,0.0300642,0.00107926,0.212306,0.330135,0.00993165,2,1.58866,3.48815
2,1,Potentiostatic EIS,110.748,3.48815,0.000150299,1.12202,0.0301269,-2.07858,0.0301071,0.0010927,0.215973,0.330127,0.00994573,2,1.78251,3.48815
2,1,Potentiostatic EIS,114.4,3.48815,0.000265662,0.999995,0.030186,-2.11333,0.0301655,0.00111315,0.196831,0.329169,0.00993629,2,2.00001,3.48815
2,1,Potentiostatic EIS,118.495,3.48816,4.22478e-05,0.891248,0.030249,-2.15499,0.0302276,0.00113745,0.183239,0.328564,0.00993872,2,2.24404,3.48816
2,1,Potentiostatic EIS,123.09,3.48815,0.000212037,0.794324,0.0303092,-2.20284,0.0302868,0.00116501,0.207424,0.328169,0.00994656,2,2.51786,3.48815
2,1,Potentiostatic EIS,128.244,3.48816,0.000115291,0.707944,0.0303782,-2.2796,0.0303541,0.00120832,0.233215,0.327417,0.00994633,2,2.82508,3.48816
2,1,Potentiostatic EIS,134.023,3.48816,-3.62401e-05,0.630955,0.0304289,-2.3475,0.0304033,0.00124637,0.207649,0.326676,0.00994038,2,3.1698,3.48816
2,1,Potentiostatic EIS,140.509,3.48816,0.000356558,0.562339,0.0305146,-2.41259,0.0304876,0.00128452,0.17861,0.325752,0.0099402,2,3.55657,3.48816
2,1,Potentiostatic EIS,147.784,3.48816,0.000131841,0.501186,0.0305774,-2.51205,0.030548,0.00134019,0.217994,0.325368,0.00994888,2,3.99054,3.48816
2,1,Potentiostatic EIS,155.944,3.48816,-6.80362e-05,0.446681,0.0306437,-2.59871,0.0306122,0.00138941,0.197889,0.324241,0.00993594,2,4.47747,3.48816
2,1,Potentiostatic EIS,165.099,3.48816,0.000322319,0.398106,0.0307198,-2.70815,0.0306855,0.00145147,0.238705,0.32347,0.00993689,2,5.02379,3.48816
2,1,Potentiostatic EIS,175.369,3.48815,-8.75927e-05,0.354812,0.0307977,-2.83238,0.0307601,0.00152184,0.204494,0.322936,0.0099457,2,5.63679,3.48815
2,1,Potentiostatic EIS,186.884,3.48816,-4.06464e-05,0.316226,0.0308746,-2.93632,0.0308341,0.00158159,0.201771,0.321907,0.00993877,2,6.32458,3.48816
2,1,Potentiostatic EIS,199.803,3.48816,0.000448113,0.281837,0.0309785,-3.09116,0.0309334,0.00167051,0.194783,0.321009,0.00994438,2,7.09631,3.48816
2,1,Potentiostatic EIS,214.297,3.48816,8.89663e-05,0.251188,0.0310538,-3.22191,0.0310047,0.00174532,0.201234,0.320111,0.00994061,2,7.96218,3.48816
2,1,Potentiostatic EIS,230.561,3.48816,-3.54534e-05,0.223871,0.031142,-3.38963,0.0310875,0.00184129,0.220004,0.319466,0.00994879,2,8.9337,3.48816
2,1,Potentiostatic EIS,248.804,3.48816,0.000257084,0.199525,0.0312402,-3.55765,0.03118,0.00193854,0.191559,0.318291,0.00994347,2,10.0238,3.48816
2,1,Potentiostatic EIS,269.271,3.48816,-0.000228784,0.177827,0.031331,-3.72754,0.0312647,0.00203689,0.201549,0.31722,0.00993882,2,11.2469,3.48816
2,1,Potentiostatic EIS,292.241,3.48815,-3.7971e-05,0.158489,0.0314482,-3.90952,0.0313751,0.00214418,0.201854,0.316459,0.00995209,2,12.6192,3.48815
2,1,Potentiostatic EIS,318.005,3.48816,1.25459e-05,0.141253,0.0315553,-4.15735,0.0314723,0.00228763,0.185796,0.31515,0.00994462,2,14.159,3.48816
2,1,Potentiostatic EIS,346.918,3.48816,-0.000406876,0.125892,0.0316612,-4.3739,0.031569,0.00241464,0.201783,0.314023,0.00994232,2,15.8867,3.48816
2,1,Potentiostatic EIS,379.352,3.48817,0.000172185,0.112201,0.0318001,-4.60764,0.0316973,0.00255456,0.193038,0.312742,0.00994519,2,17.8251,3.48817
2,1,Potentiostatic EIS,415.744,3.48817,-0.000156,0.0999997,0.0319218,-4.88988,0.0318056,0.00272104,0.192268,0.311507,0.00994385,2,20.0001,3.48817
2,1,Potentiostatic EIS,456.572,3.48817,-0.000117043,0.0891246,0.0320557,-5.16169,0.0319257,0.00288394,0.191514,0.310118,0.00994105,2,22.4405,3.48817
2,1,Potentiostatic EIS,502.372,3.48816,0.000338511,0.0794325,0.0322078,-5.46228,0.0320615,0.00306587,0.181759,0.308777,0.00994499,2,25.1786,3.48816
2,1,Potentiostatic EIS,553.771,3.48816,-0.000471423,0.0707942,0.0323767,-5.83815,0.0322088,0.00329332,0.199197,0.307295,0.00994918,2,28.2509,3.48816
2,1,Potentiostatic EIS,611.427,3.48817,-0.000134467,0.0630955,0.0325333,-6.19508,0.0323433,0.00351079,0.192304,0.305723,0.00994619,2,31.698,3.48817
2,1,Potentiostatic EIS,676.116,3.48816,0.000277839,0.0562339,0.0327169,-6.55033,0.0325033,0.00373221,0.181825,0.303992,0.00994569,2,35.5657,3.48816
2,1,Potentiostatic EIS,748.699,3.48817,-0.000380563,0.0501185,0.032931,-7.00259,0.0326854,0.00401476,0.179848,0.302198,0.00995167,2,39.9054,3.48817
2,1,Potentiostatic EIS,821.451,3.48817,-0.000260506,0.05,0.0329111,-6.98422,0.0326669,0.00400185,0.19212,0.302327,0.00994989,2,40,3.48817