File: Data/P190_04/EIS_08_P190_04_2/2_EIS_08_P190_04_2 20231019 123923.csv
Step number,Repeats,Step name,Elapsed Time  (s),DC Working Electrode (V),DC Current (A),Frequency (Hz),|Z| (Ohms),Phase (deg),Z' (Ohms),-Z" (Ohms),THD (%),Amplitude (A),Amplitude (V),No of Cycles,Duration of Each Frequency (s),IR Compensated DC Working Electrode (V)
2,1,Potentiostatic EIS,60.2994,3.48697,-0.0112864,1000000,3.28386,88.3284,0.0957907,-3.28246,1.2969,0.00303072,0.00995243,1430,0.00143,3.48697
2,1,Potentiostatic EIS,60.5265,3.48695,-0.0118781,891251,2.92845,87.8072,0.112047,-2.9263,1.12117,0.00335487,0.00982464,1310,0.00146984,3.48695
2,1,Potentiostatic EIS,60.7555,3.48694,-0.0119273,794328,2.6361,87.7693,0.102605,-2.6341,1.27769,0.00376076,0.00991384,1445,0.00181915,3.48694
2,1,Potentiostatic EIS,60.9863,3.48692,-0.0124076,707946,2.35416,87.773,0.0914809,-2.35238,1.21048,0.00421882,0.00993178,1340,0.0018928,3.48692
2,1,Potentiostatic EIS,61.2225,3.4869,-0.0131839,630957.25,2.09759,87.2321,0.101291,-2.09515,1.30785,0.00469689,0.00985255,1355,0.00214753,3.4869
2,1,Potentiostatic EIS,61.4691,3.48687,-0.0136098,562341.25,1.87658,87.167,0.0927499,-1.87428,1.19633,0.0051801,0.00972059,1360,0.00241846,3.48687
2,1,Potentiostatic EIS,61.7459,3.48685,-0.0143294,501187,1.68009,87.1628,0.0831611,-1.67803,1.19428,0.00593371,0.00996917,1385,0.00276344,3.48685
2,1,Potentiostatic EIS,62.0146,3.48683,-0.014285,446684,1.49783,86.7124,0.0858987,-1.49536,1.12726,0.00665107,0.00996218,1360,0.00304466,3.48683
2,1,Potentiostatic EIS,62.2943,3.48682,-0.0150047,398107,1.34385,86.5004,0.0820308,-1.34135,1.22172,0.00741315,0.00996219,1400,0.00351664,3.48682
2,1,Potentiostatic EIS,62.582,3.48681,-0.0152797,354813,1.19752,86.341,0.0764234,-1.19508,1.05644,0.00832533,0.0099697,1365,0.00384709,3.48681
2,1,Potentiostatic EIS,62.8911,3.48677,-0.0158574,316228,1.07194,86.0632,0.0735958,-1.06941,1.33392,0.00926221,0.00992861,1370,0.00433232,3.48677
2,1,Potentiostatic EIS,63.2103,3.48675,-0.0165571,281838.25,0.958372,85.615,0.0732754,-0.955566,1.2977,0.0103934,0.00996082,1370,0.00486094,3.48675
2,1,Potentiostatic EIS,63.7015,3.48672,-0.0167732,251189,0.860104,85.3016,0.0704517,-0.857214,1.44912,0.0116082,0.00998432,1340,0.00533464,3.48672
2,1,Potentiostatic EIS,64.0582,3.48667,-0.0180422,223872,0.768146,85.1678,0.064707,-0.765415,1.31559,0.0128388,0.00986176,1360,0.0060749,3.48667
2,1,Potentiostatic EIS,64.4359,3.48667,-0.018563,199526,0.685089,85.0735,0.0588342,-0.682558,1.38276,0.0140963,0.00965797,1355,0.00679109,3.48667
2,1,Potentiostatic EIS,64.8705,3.48664,-0.018832,177828,0.618473,84.5596,0.0586376,-0.615687,1.38904,0.0161273,0.00997432,1355,0.00761973,3.48664
2,1,Potentiostatic EIS,65.3346,3.48659,-0.0202445,158489,0.553364,84.2318,0.0556153,-0.550562,1.43791,0.01802,0.00997166,1360,0.00858103,3.48659
2,1,Potentiostatic EIS,65.8292,3.48655,-0.0209175,141254,0.494937,83.9644,0.0520411,-0.492193,1.50581,0.0201661,0.00998098,1355,0.00959267,3.48655
2,1,Potentiostatic EIS,66.5896,3.48651,-0.0216932,125892,0.444655,83.4462,0.0507514,-0.441749,1.66636,0.0224772,0.00999463,1370,0.0108823,3.48651
2,1,Potentiostatic EIS,67.1652,3.48647,-0.0224816,112202,0.398784,83.0001,0.048599,-0.395811,1.61208,0.0250285,0.00998095,1360,0.012121,3.48647
2,1,Potentiostatic EIS,67.7321,3.48644,-0.0232859,99999.9,0.355994,82.6069,0.0458077,-0.353035,1.74813,0.0279902,0.00996435,1370,0.0137,3.48644
2,1,Potentiostatic EIS,68.3417,3.48639,-0.0244027,89125.1,0.32042,82.0181,0.0444933,-0.317315,1.61872,0.0312815,0.0100231,1365,0.0153156,3.48639
2,1,Potentiostatic EIS,69.0094,3.48637,-0.0248522,79432.8,0.287353,81.3885,0.0430265,-0.284114,2.4321,0.0348027,0.0100008,1365,0.0171843,3.48637
2,1,Potentiostatic EIS,69.7418,3.48632,-0.0258489,70794.5,0.25739,80.8317,0.0410111,-0.254101,1.86725,0.0387027,0.00996165,1370,0.0193518,3.48632
2,1,Potentiostatic EIS,69.9926,3.48631,-0.0268145,63095.7,0.230714,80.3647,0.0386163,-0.22746,1.76425,0.0432834,0.00998613,1290,0.0204451,3.48631
2,1,Potentiostatic EIS,70.2415,3.48622,-0.0282017,56234.1,0.208026,79.6165,0.0374939,-0.204619,1.99027,0.0480134,0.00998808,1150,0.0204502,3.48622
2,1,Potentiostatic EIS,70.4966,3.48624,-0.0284846,50118.7,0.186487,79.4237,0.0342288,-0.183319,2.06674,0.0534606,0.00997062,1025,0.0204515,3.48624
2,1,Potentiostatic EIS,70.8399,3.4862,-0.0279197,44668.3,0.167584,77.6631,0.0358061,-0.163715,2.06174,0.0589426,0.00987776,910,0.0203724,3.4862
2,1,Potentiostatic EIS,71.0816,3.48619,-0.0286739,39810.7,0.150692,77.0707,0.0337172,-0.146871,1.95227,0.0653258,0.00984422,815,0.0204719,3.48619
2,1,Potentiostatic EIS,71.4318,3.48663,-0.0160736,35481.3,0.135285,76.0208,0.0326807,-0.131278,4.05592,0.0724975,0.00980777,725,0.0204333,3.48663
2,1,Potentiostatic EIS,71.6505,3.48671,-0.0129236,31622.8,0.122521,74.8369,0.0320476,-0.118256,4.81413,0.08187,0.0100309,645,0.0203967,3.48671
2,1,Potentiostatic EIS,71.8563,3.48679,-0.0127797,28183.8,0.109792,73.8987,0.0304492,-0.105485,5.18216,0.0881063,0.00967301,575,0.0204018,3.48679
2,1,Potentiostatic EIS,72.076,3.48708,-0.0027965,25118.8,0.0999461,72.3949,0.0302291,-0.095265,5.60899,0.100596,0.0100542,510,0.0203035,3.48708
2,1,Potentiostatic EIS,72.2992,3.48715,-0.00247285,22387.2,0.089445,70.8106,0.0293998,-0.0844752,5.98943,0.111508,0.00997379,455,0.0203241,3.48715
2,1,Potentiostatic EIS,72.501,3.48713,-0.00206194,19952.6,0.0817638,69.1682,0.0290773,-0.0764188,6.39755,0.119419,0.00976397,405,0.0202981,3.48713
2,1,Potentiostatic EIS,72.7088,3.48714,-0.00143786,17782.8,0.0738021,67.4414,0.0283126,-0.0681554,6.53551,0.132374,0.00976996,360,0.0202443,3.48714
2,1,Potentiostatic EIS,72.9189,3.48713,-0.00147793,15848.9,0.0669597,65.5735,0.0276895,-0.0609663,6.68186,0.146144,0.00978613,320,0.0201906,3.48713
2,1,Potentiostatic EIS,73.1262,3.48719,-0.00138709,14125.4,0.0613636,63.2621,0.027608,-0.0548022,6.77395,0.16053,0.00985064,285,0.0201765,3.48719
2,1,Potentiostatic EIS,73.3296,3.48716,-0.00126167,12589.2,0.0558989,61.2049,0.0269253,-0.0489869,6.93053,0.177357,0.00991405,255,0.0202554,3.48716
2,1,Potentiostatic EIS,73.5324,3.48718,-0.00133653,11220.2,0.0513784,58.564,0.0267962,-0.0438372,6.84298,0.192586,0.00989464,225,0.0200532,3.48718
2,1,Potentiostatic EIS,73.7929,3.48736,-0.000945015,9999.98,0.0473899,56.4326,0.0262027,-0.0394869,3.37367,0.211221,0.0100097,307,0.0307001,3.48736
2,1,Potentiostatic EIS,74.0037,3.48737,-0.00114056,8912.5,0.0438814,53.9579,0.0258189,-0.0354818,3.73023,0.24071,0.0105627,273,0.0306311,3.48737
2,1,Potentiostatic EIS,74.2151,3.48737,-0.00110578,7943.27,0.0407691,51.6219,0.0253114,-0.0319601,4.10888,0.259543,0.0105813,244,0.0307178,3.48737
2,1,Potentiostatic EIS,74.4267,3.48738,-0.000644032,7079.45,0.0375862,49.4008,0.0244597,-0.0285385,4.45059,0.280024,0.010525,217,0.0306521,3.48738
2,1,Potentiostatic EIS,74.6393,3.48739,-0.000547862,6309.57,0.0345839,45.5375,0.024224,-0.0246828,4.73119,0.302253,0.0104531,193,0.0305885,3.48739
2,1,Potentiostatic EIS,74.8512,3.48741,-0.000156903,5623.41,0.0326482,41.7443,0.0243596,-0.0217374,4.82391,0.318673,0.0104041,172,0.0305864,3.48741
2,1,Potentiostatic EIS,75.0627,3.48742,-9.10418e-05,5011.87,0.0311566,38.1793,0.0244915,-0.0192587,4.82663,0.330904,0.0103098,153,0.0305276,3.48742
2,1,Potentiostatic EIS,75.2742,3.48742,-0.000150049,4466.83,0.0298921,34.865,0.0245265,-0.0170877,4.743,0.342319,0.0102327,137,0.0306705,3.48742
2,1,Potentiostatic EIS,75.4844,3.48744,0.000435183,3981.07,0.0288207,31.6641,0.0245304,-0.0151291,4.62542,0.352734,0.010166,122,0.0306451,3.48744
2,1,Potentiostatic EIS,75.6519,3.48746,0.00101524,3548.13,0.0279391,28.6544,0.0245173,-0.0133975,4.60324,0.31417,0.00877762,108,0.0304386,3.48746
2,1,Potentiostatic EIS,75.823,3.48746,0.000993144,3162.27,0.0272232,25.7336,0.0245233,-0.01182,4.33681,0.353881,0.00963378,97,0.0306742,3.48746
2,1,Potentiostatic EIS,75.9911,3.48746,0.00118119,2818.38,0.0266505,22.9561,0.0245399,-0.0103944,4.09097,0.395581,0.0105425,86,0.030514,3.48746
2,1,Potentiostatic EIS,76.1588,3.48746,0.000984351,2511.88,0.0261721,20.3594,0.0245371,-0.00910544,3.83706,0.399018,0.0104431,77,0.0306543,3.48746
2,1,Potentiostatic EIS,76.3255,3.48745,0.00104992,2238.72,0.0258137,17.8955,0.0245648,-0.0079321,3.57731,0.400344,0.0103343,68,0.0303745,3.48745
2,1,Potentiostatic EIS,76.4937,3.48747,0.00131511,1995.26,0.0255205,15.6462,0.0245748,-0.00688278,3.31244,0.401559,0.010248,61,0.0305725,3.48747
2,1,Potentiostatic EIS,76.6611,3.48749,0.00171362,1778.28,0.025339,13.5085,0.024638,-0.00591891,3.30411,0.401197,0.0101659,54,0.0303664,3.48749
2,1,Potentiostatic EIS,76.8294,3.48749,0.00194654,1584.89,0.0252156,11.5451,0.0247054,-0.00504664,3.02982,0.400625,0.010102,48,0.030286,3.48749
2,1,Potentiostatic EIS,76.9527,3.48748,0.00138944,1412.53,0.0251317,9.7358,0.0247697,-0.0042499,2.96459,0.366097,0.00920063,43,0.0304417,3.48748
2,1,Potentiostatic EIS,77.0763,3.48748,0.00157678,1258.92,0.0251103,8.12304,0.0248583,-0.00354806,2.82918,0.385353,0.00967631,38,0.0301845,3.48748
2,1,Potentiostatic EIS,77.1994,3.48749,0.00184571,1122.02,0.0251116,6.6144,0.0249444,-0.00289252,2.53421,0.412381,0.0103555,34,0.0303026,3.48749
2,1,Potentiostatic EIS,77.3228,3.48748,0.00158923,999.999,0.025158,5.23766,0.0250529,-0.0022966,2.55414,0.40796,0.0102634,30,0.03,3.48748
2,1,Potentiostatic EIS,77.446,3.48749,0.00177169,891.25,0.0252508,4.00509,0.0251891,-0.00176364,2.43179,0.404379,0.0102109,27,0.0302945,3.48749
2,1,Potentiostatic EIS,77.5698,3.48751,0.0022121,794.328,0.0253584,2.84597,0.0253271,-0.00125907,2.32606,0.400678,0.0101606,24,0.0302142,3.48751
2,1,Potentiostatic EIS,77.6927,3.48752,0.00265913,707.945,0.0254707,1.81848,0.0254579,-0.000808268,2.11593,0.396471,0.0100984,21,0.0296633,3.48752
2,1,Potentiostatic EIS,77.8158,3.4875,0.00239875,630.956,0.02563,0.932189,0.0256266,-0.000416976,2.11019,0.393468,0.0100846,19,0.030113,3.4875
2,1,Potentiostatic EIS,77.9397,3.48751,0.00188644,562.34,0.0257961,0.0768742,0.0257961,-3.46109e-05,2.02837,0.390163,0.0100647,17,0.0302308,3.48751
2,1,Potentiostatic EIS,78.0639,3.48751,0.00239843,501.185,0.0259697,-0.679683,0.0259679,0.000308064,2.0017,0.386805,0.0100452,15,0.029929,3.48751
2,1,Potentiostatic EIS,78.1876,3.48752,0.00218877,446.683,0.0261846,-1.34546,0.0261774,0.000614828,1.92656,0.382857,0.010025,13,0.0291034,3.48752
2,1,Potentiostatic EIS,78.267,3.48752,0.00240996,398.107,0.02639,-1.94019,0.0263749,0.000893467,1.93268,0.329191,0.00868736,12,0.0301427,3.48752
2,1,Potentiostatic EIS,78.3453,3.48752,0.00213327,354.813,0.0266058,-2.50944,0.0265803,0.00116491,1.86035,0.336611,0.0089558,10,0.0281839,3.48752
2,1,Potentiostatic EIS,78.4244,3.48752,0.00239203,316.227,0.0268317,-2.939,0.0267964,0.00137573,1.76654,0.341822,0.00917167,9,0.0284606,3.48752
2,1,Potentiostatic EIS,78.5031,3.48752,0.00229004,281.838,0.0270749,-3.35162,0.0270286,0.0015829,1.71221,0.345226,0.00934697,8,0.0283851,3.48752
2,1,Potentiostatic EIS,78.584,3.48751,0.00223105,251.188,0.0273178,-3.67144,0.0272617,0.00174929,1.6039,0.347174,0.00948405,8,0.0318487,3.48751
2,1,Potentiostatic EIS,78.6696,3.48752,0.00272544,223.872,0.0275593,-3.9624,0.0274934,0.0019044,1.50552,0.347853,0.00958657,8,0.0357347,3.48752
2,1,Potentiostatic EIS,78.7587,3.48752,0.00267152,199.526,0.0278197,-4.18276,0.0277456,0.00202911,1.43404,0.347695,0.00967276,8,0.0400951,3.48752
2,1,Potentiostatic EIS,78.8533,3.48752,0.00260695,177.828,0.0280877,-4.41649,0.0280043,0.00216292,1.33673,0.346975,0.00974575,8,0.0449874,3.48752
2,1,Potentiostatic EIS,78.9526,3.48752,0.00250539,158.489,0.0283068,-4.55076,0.0282176,0.00224592,1.24615,0.345603,0.00978291,8,0.0504767,3.48752
2,1,Potentiostatic EIS,79.0572,3.48752,0.00251652,141.253,0.0285636,-4.71532,0.0284669,0.00234807,1.14593,0.343807,0.00982037,8,0.0566359,3.48752
2,1,Potentiostatic EIS,79.1706,3.48751,0.00224658,125.892,0.0288234,-4.79074,0.0287227,0.00240724,1.0606,0.341764,0.00985081,8,0.0635464,3.48751
2,1,Potentiostatic EIS,79.2899,3.48752,0.00216541,112.201,0.0290718,-4.86118,0.0289672,0.0024636,0.960105,0.339431,0.00986788,8,0.0713003,3.48752
2,1,Potentiostatic EIS,79.4197,3.48751,0.00213186,99.9997,0.0293043,-4.87805,0.0291982,0.0024919,0.860539,0.337125,0.00987921,8,0.0800003,3.48751
2,1,Potentiostatic EIS,79.5592,3.48752,0.0023911,89.1248,0.0295571,-4.88729,0.0294496,0.00251814,0.786185,0.334596,0.00988969,8,0.0897617,3.48752
2,1,Potentiostatic EIS,79.7108,3.48752,0.00242226,79.4325,0.0297926,-4.85427,0.0296857,0.0025211,0.707083,0.332141,0.00989535,8,0.100714,3.48752
2,1,Potentiostatic EIS,79.8752,3.48753,0.00254139,70.7943,0.03003,-4.84013,0.0299229,0.0025338,0.647693,0.329738,0.00990202,8,0.113003,3.48753
2,1,Potentiostatic EIS,80.0535,3.48753,0.00270446,63.0956,0.0302541,-4.78492,0.0301487,0.00252366,0.576678,0.32734,0.00990337,8,0.126792,3.48753
2,1,Potentiostatic EIS,80.2492,3.48753,0.00262739,56.2341,0.0304786,-4.74781,0.0303741,0.00252272,0.509335,0.318277,0.00970065,8,0.142263,3.48753
2,1,Potentiostatic EIS,80.4624,3.48752,0.00231327,50.1186,0.0306958,-4.65122,0.0305947,0.00248912,0.461292,0.316819,0.00972501,8,0.159621,3.48752
2,1,Potentiostatic EIS,80.6983,3.48752,0.0021974,44.6682,0.0309104,-4.56942,0.0308121,0.00246253,0.412991,0.315321,0.00974669,8,0.179098,3.48752
2,1,Potentiostatic EIS,80.9564,3.48751,0.00202702,39.8106,0.0311056,-4.47994,0.0310106,0.00242966,0.378889,0.313739,0.00975904,8,0.200952,3.48751
2,1,Potentiostatic EIS,81.2411,3.48752,0.00247249,35.4812,0.0313005,-4.36134,0.0312098,0.00238029,0.341676,0.312453,0.00977994,8,0.225471,3.48752
2,1,Potentiostatic EIS,81.3831,3.48751,0.00131978,31.6227,0.0314854,-4.24687,0.0313989,0.00233162,0.313751,0.31416,0.00989152,2,0.0632458,3.48751
2,1,Potentiostatic EIS,81.5282,3.4875,0.00138262,28.1838,0.031677,-4.11541,0.0315953,0.00227332,0.291782,0.312905,0.00991195,2,0.0709628,3.4875
2,1,Potentiostatic EIS,81.6907,3.48752,0.0019693,25.1188,0.0318574,-3.99137,0.0317801,0.00221747,0.260444,0.302752,0.00964483,2,0.0796217,3.48752
2,1,Potentiostatic EIS,81.8711,3.48752,0.00212795,22.3871,0.0320347,-3.85913,0.031962,0.00215605,0.274477,0.303556,0.00972425,2,0.0893371,3.48752
2,1,Potentiostatic EIS,82.071,3.48752,0.0020735,19.9525,0.032202,-3.71325,0.0321344,0.0020855,0.236226,0.302894,0.00975372,2,0.100238,3.48752
2,1,Potentiostatic EIS,82.2934,3.48751,0.00184416,17.7828,0.0323644,-3.5772,0.0323013,0.00201932,0.242113,0.302816,0.00980043,2,0.112468,3.48751
2,1,Potentiostatic EIS,82.5408,3.48752,0.00183694,15.8489,0.0324987,-3.45659,0.0324395,0.00195942,0.221854,0.302292,0.00982412,2,0.126192,3.48752
2,1,Potentiostatic EIS,82.816,3.48753,0.00201907,14.1253,0.0326359,-3.32478,0.032581,0.00189274,0.225424,0.301528,0.00984062,2,0.14159,3.48753
2,1,Potentiostatic EIS,83.1228,3.48753,0.0020094,12.5892,0.0327534,-3.13513,0.0327044,0.00179131,0.211086,0.301089,0.00986164,2,0.158866,3.48753
2,1,Potentiostatic EIS,83.4649,3.48753,0.00165918,11.2201,0.0328826,-3.03662,0.0328364,0.00174193,0.194357,0.30051,0.0098816,2,0.178251,3.48753
2,1,Potentiostatic EIS,83.8466,3.48753,0.00157442,9.99996,0.0330175,-2.9175,0.0329747,0.00168052,0.368821,0.2998,0.00989861,2,0.200001,3.48753
2,1,Potentiostatic EIS,84.273,3.48753,0.00139084,8.91248,0.033113,-2.79969,0.0330735,0.00161739,0.36019,0.298866,0.00989636,2,0.224404,3.48753
2,1,Potentiostatic EIS,84.7485,3.48753,0.00127885,7.94325,0.0332204,-2.6738,0.0331842,0.00154972,0.210446,0.298559,0.00991826,2,0.251786,3.48753
2,1,Potentiostatic EIS,85.2803,3.48752,0.00136356,7.07944,0.0332989,-2.59393,0.0332648,0.00150702,0.207393,0.297922,0.00992052,2,0.282508,3.48752
2,1,Potentiostatic EIS,85.8745,3.48752,0.00133029,6.30955,0.0334009,-2.48213,0.0333695,0.00144652,0.181782,0.297404,0.00993355,2,0.31698,3.48752
2,1,Potentiostatic EIS,86.5384,3.48752,0.00114015,5.62339,0.0334849,-2.38643,0.0334558,0.00139428,0.204071,0.296579,0.00993091,2,0.355657,3.48752
2,1,Potentiostatic EIS,87.2822,3.48752,0.00122703,5.01185,0.0335711,-2.29474,0.0335441,0.00134419,0.189169,0.296105,0.00994055,2,0.399054,3.48752
2,1,Potentiostatic EIS,88.114,3.48752,0.00129556,4.46682,0.0336322,-2.23869,0.0336065,0.00131376,0.190581,0.295389,0.00993453,2,0.447745,3.48752
2,1,Potentiostatic EIS,89.042,3.48753,0.00104492,3.98106,0.0337123,-2.16305,0.0336882,0.00127242,0.188354,0.294892,0.00994146,2,0.502378,3.48753
2,1,Potentiostatic EIS,90.0814,3.48753,0.00101671,3.54812,0.0337775,-2.10839,0.0337546,0.00124267,0.189464,0.294144,0.00993544,2,0.563679,3.48753
2,1,Potentiostatic EIS,91.246,3.48752,0.000919311,3.16227,0.0338521,-2.04751,0.0338304,0.00120947,0.195324,0.293774,0.00994485,2,0.632458,3.48752
2,1,Potentiostatic EIS,92.551,3.48753,0.000835716,2.81837,0.0339145,-2.01969,0.0338935,0.00119525,0.203565,0.293181,0.0099431,2,0.70963,3.48753
2,1,Potentiostatic EIS,94.0137,3.48753,0.000959869,2.51188,0.0339802,-1.9694,0.0339602,0.00116775,0.163282,0.292664,0.00994476,2,0.796217,3.48753
2,1,Potentiostatic EIS,95.6541,3.48753,0.000994277,2.23872,0.0340235,-1.96028,0.0340036,0.00116383,0.203414,0.29233,0.00994608,2,0.893369,3.48753
2,1,Potentiostatic EIS,97.4915,3.48753,0.000794883,1.99526,0.0340827,-1.94175,0.0340632,0.00115484,0.199139,0.291795,0.00994519,2,1.00238,3.48753
2,1,Potentiostatic EIS,99.5517,3.48753,0.000617544,1.77827,0.0341488,-1.91197,0.0341298,0.00113934,0.186824,0.291222,0.00994491,2,1.12469,3.48753
2,1,Potentiostatic EIS,101.862,3.48753,0.000697905,1.58489,0.0341998,-1.92403,0.0341805,0.00114824,0.161269,0.290855,0.00994717,2,1.26192,3.48753
2,1,Potentiostatic EIS,104.45,3.48752,0.000689327,1.41253,0.0342876,-1.91477,0.0342685,0.00114564,0.189488,0.2903,0.00995369,2,1.4159,3.48752
2,1,Potentiostatic EIS,107.355,3.48751,0.000324535,1.25892,0.0343384,-1.95022,0.0343185,0.00116858,0.184158,0.289512,0.00994138,2,1.58866,3.48751
2,1,Potentiostatic EIS,110.611,3.48751,0.000463653,1.12202,0.0343905,-1.94971,0.0343706,0.00117004,0.181663,0.289173,0.0099448,2,1.78251,3.48751
2,1,Potentiostatic EIS,114.263,3.48752,0.000314854,0.999995,0.034458,-1.98508,0.0344373,0.0011936,0.20019,0.288679,0.00994729,2,2.00001,3.48752
2,1,Potentiostatic EIS,118.359,3.48752,0.000266133,0.891248,0.0345166,-2.01849,0.0344951,0.00121574,0.17038,0.288165,0.00994649,2,2.24404,3.48752
2,1,Potentiostatic EIS,122.954,3.48752,0.000408054,0.794324,0.0345821,-2.06472,0.0345597,0.00124594,0.186329,0.287584,0.00994524,2,2.51786,3.48752
2,1,Potentiostatic EIS,128.108,3.48751,0.0002056,0.707944,0.0346503,-2.09825,0.0346271,0.00126866,0.204908,0.287274,0.00995412,2,2.82508,3.48751
2,1,Potentiostatic EIS,133.887,3.48752,0.000385142,0.630955,0.0347178,-2.1681,0.0346929,0.00131342,0.185676,0.286485,0.00994613,2,3.1698,3.48752
2,1,Potentiostatic EIS,140.373,3.48753,0.000767244,0.562339,0.0347805,-2.2467,0.0347537,0.00136347,0.201462,0.285987,0.00994676,2,3.55657,3.48753
2,1,Potentiostatic EIS,147.647,3.48753,0.000309899,0.501186,0.0348528,-2.28588,0.0348251,0.00139012,0.138996,0.285415,0.00994751,2,3.99054,3.48753
2,1,Potentiostatic EIS,155.806,3.48752,0.000527807,0.446681,0.0349078,-2.38655,0.0348775,0.0014536,0.200608,0.285085,0.00995168,2,4.47747,3.48752
2,1,Potentiostatic EIS,164.961,3.48751,0.000549234,0.398106,0.0349965,-2.49598,0.0349633,0.00152407,0.207381,0.28425,0.00994777,2,5.02379,3.48751
2,1,Potentiostatic EIS,175.23,3.48751,0.000296194,0.354812,0.0350665,-2.57928,0.035031,0.00157805,0.179203,0.283719,0.00994902,2,5.63679,3.48751
2,1,Potentiostatic EIS,186.746,3.48752,0.000519381,0.316226,0.0351397,-2.71828,0.0351002,0.0016665,0.200121,0.283067,0.00994686,2,6.32458,3.48752
2,1,Potentiostatic EIS,199.666,3.48752,0.000507637,0.281837,0.0352382,-2.82683,0.0351953,0.00173786,0.168728,0.282386,0.00995079,2,7.09631,3.48752
2,1,Potentiostatic EIS,214.16,3.48752,0.000163499,0.251188,0.0353193,-2.94193,0.0352728,0.00181273,0.188654,0.28168,0.00994873,2,7.96218,3.48752
2,1,Potentiostatic EIS,230.424,3.48752,0.000599713,0.223871,0.0354095,-3.08148,0.0353583,0.00190347,0.168018,0.280967,0.0099489,2,8.9337,3.48752
2,1,Potentiostatic EIS,248.667,3.48752,0.000448255,0.199525,0.0355075,-3.23211,0.035451,0.00200195,0.186765,0.28047,0.00995877,2,10.0238,3.48752
2,1,Potentiostatic EIS,269.134,3.48752,0.000311976,0.177827,0.0355966,-3.40739,0.0355337,0.00211569,0.212108,0.279521,0.00995,2,11.2469,3.48752
2,1,Potentiostatic EIS,292.105,3.48752,0.000894613,0.158489,0.0357189,-3.5571,0.0356501,0.00221612,0.189821,0.278666,0.00995361,2,12.6192,3.48752
2,1,Potentiostatic EIS,317.87,3.48752,0.000265025,0.141253,0.0357945,-3.75335,0.0357177,0.00234316,0.180899,0.278114,0.00995494,2,14.159,3.48752
2,1,Potentiostatic EIS,346.783,3.48751,0.000267928,0.125892,0.035917,-3.95541,0.0358314,0.00247756,0.175705,0.277286,0.0099593,2,15.8867,3.48751
2,1,Potentiostatic EIS,379.216,3.48751,0.000554105,0.112201,0.036046,-4.17667,0.0359502,0.0026253,0.192825,0.276126,0.00995325,2,17.8251,3.48751
2,1,Potentiostatic EIS,415.608,3.48751,-8.09576e-05,0.0999997,0.0361704,-4.41835,0.0360629,0.00278651,0.163832,0.275141,0.00995195,2,20.0001,3.48751
2,1,Potentiostatic EIS,456.436,3.48751,0.0001347,0.0891246,0.0363142,-4.67424,0.0361934,0.00295925,0.171693,0.274064,0.00995236,2,22.4405,3.48751
2,1,Potentiostatic EIS,502.237,3.48751,0.000388408,0.0794325,0.0364535,-4.94559,0.0363178,0.00314265,0.164764,0.273061,0.00995401,2,25.1786,3.48751
2,1,Potentiostatic EIS,553.636,3.4875,-0.000141461,0.0707942,0.0366001,-5.246,0.0364468,0.00334642,0.181397,0.271751,0.00994608,2,28.2509,3.4875
2,1,Potentiostatic EIS,611.292,3.4875,0.000420806,0.0630955,0.0367815,-5.56123,0.0366084,0.00356448,0.166697,0.270626,0.00995401,2,31.698,3.4875
2,1,Potentiostatic EIS,675.981,3.48751,0.000268612,0.0562339,0.0369768,-5.93809,0.0367784,0.00382539,0.181572,0.269296,0.00995768,2,35.5657,3.48751
2,1,Potentiostatic EIS,748.563,3.48751,8.66038e-05,0.0501185,0.0371655,-6.30672,0.0369406,0.00408266,0.177983,0.267884,0.00995605,2,39.9054,3.48751
2,1,Potentiostatic EIS,821.315,3.48751,0.000116729,0.05,0.0371343,-6.31987,0.0369086,0.0040877,0.176003,0.268182,0.00995878,2,40,3.48751