File: Data/P190_04/EIS_08_P190_04_2/3_EIS_08_P190_04_2 20231019 125205.csv
Step number,Repeats,Step name,Elapsed Time  (s),DC Working Electrode (V),DC Current (A),Frequency (Hz),|Z| (Ohms),Phase (deg),Z' (Ohms),-Z" (Ohms),THD (%),Amplitude (A),Amplitude (V),No of Cycles,Duration of Each Frequency (s),IR Compensated DC Working Electrode (V)
3,1,Potentiostatic EIS,821.682,3.48699,-0.00153869,1000000,3.28542,87.9255,0.118931,-3.28326,1.07773,0.00304646,0.0100096,1430,0.00143,3.48699
3,1,Potentiostatic EIS,822.223,3.48696,0.000339115,990832,3.26295,87.9253,0.11813,-3.26081,1.00325,0.00307076,0.0100198,1435,0.00144828,3.48696
3,1,Potentiostatic EIS,822.662,3.48696,0.000661692,981748.125,3.23034,87.8293,0.122357,-3.22802,0.892123,0.00310243,0.0100222,1435,0.00146168,3.48696
3,1,Potentiostatic EIS,823.114,3.48697,0.00100471,972747,3.19508,87.7567,0.125065,-3.19263,0.889654,0.00313122,0.0100044,1430,0.00147006,3.48697
3,1,Potentiostatic EIS,823.56,3.48694,0.000698616,963829,3.17163,87.9242,0.114879,-3.16955,0.875825,0.00314548,0.00997653,1430,0.00148367,3.48694
3,1,Potentiostatic EIS,824.012,3.48697,0.000906985,954993,3.13701,87.8688,0.11666,-3.13484,1.01874,0.00318891,0.0100034,1425,0.00149216,3.48697
3,1,Potentiostatic EIS,824.456,3.48694,0.000620908,946237,3.11194,87.8429,0.11713,-3.10974,0.869641,0.00320817,0.00998364,1415,0.0014954,3.48694
3,1,Potentiostatic EIS,824.905,3.48695,0.000561995,937562,3.08897,87.8029,0.118421,-3.0867,0.957225,0.00323137,0.00998168,1405,0.00149857,3.48695
3,1,Potentiostatic EIS,825.347,3.48698,0.000113474,928967,3.05675,87.7568,0.119646,-3.05441,1.50173,0.00327419,0.0100087,1450,0.00156087,3.48698
3,1,Potentiostatic EIS,825.79,3.48695,0.000425029,920450,3.02713,87.7345,0.119665,-3.02477,0.909466,0.0032903,0.00995996,1440,0.00156445,3.48695
3,1,Potentiostatic EIS,826.225,3.48694,-0.000217521,912011,2.99985,87.8335,0.113405,-2.99771,0.950374,0.00331764,0.0099525,1425,0.00156248,3.48694
3,1,Potentiostatic EIS,826.8,3.48695,-0.000354035,903650,2.97323,87.8455,0.111779,-2.97113,1.07715,0.00333092,0.00990343,1415,0.00156587,3.48695
3,1,Potentiostatic EIS,827.353,3.48694,-0.000716959,895365.25,2.94953,87.7789,0.114309,-2.94732,0.948773,0.00336924,0.00993766,1405,0.00156919,3.48694
3,1,Potentiostatic EIS,827.794,3.48694,-0.000709095,887156,2.92201,87.7771,0.113336,-2.91982,0.927919,0.00343783,0.0100455,1400,0.00157808,3.48694
3,1,Potentiostatic EIS,828.238,3.48693,-0.000901747,879023,2.8973,87.6546,0.118567,-2.89488,2.53845,0.00343592,0.00995494,1395,0.00158699,3.48693
3,1,Potentiostatic EIS,828.685,3.48694,-0.000960326,870964,2.87406,87.7219,0.114245,-2.87179,1.013,0.00346489,0.00995841,1390,0.00159593,3.48694
3,1,Potentiostatic EIS,829.277,3.48694,-0.00105511,862979,2.84272,87.7645,0.110886,-2.84056,1.15179,0.00349009,0.00992144,1390,0.0016107,3.48694
3,1,Potentiostatic EIS,829.731,3.48694,-0.00093439,855067.25,2.82005,87.7911,0.108691,-2.81795,1.1497,0.00349115,0.00984554,1390,0.0016256,3.48694
3,1,Potentiostatic EIS,830.19,3.48696,-0.00118367,847228,2.79707,87.7541,0.109611,-2.79492,1.12621,0.00352916,0.00987126,1390,0.00164064,3.48696
3,1,Potentiostatic EIS,830.644,3.48694,-0.00142216,839461,2.76673,87.7326,0.109459,-2.76457,1.17105,0.00356901,0.00987458,1395,0.00166178,3.48694
3,1,Potentiostatic EIS,831.102,3.48693,-0.00147329,831764.375,2.74504,87.6696,0.111621,-2.74277,1.18094,0.00360593,0.00989858,1400,0.00168317,3.48693
3,1,Potentiostatic EIS,831.563,3.48695,-0.00165074,824139,2.72467,87.6078,0.113728,-2.7223,1.12456,0.00363251,0.00989731,1405,0.00170481,3.48695
3,1,Potentiostatic EIS,832.019,3.48694,-0.00156912,816583,2.70308,87.778,0.1048,-2.70105,1.13455,0.0036628,0.00990099,1415,0.00173283,3.48694
3,1,Potentiostatic EIS,832.476,3.48693,-0.00193878,809097,2.67659,87.7076,0.107061,-2.67445,1.04253,0.0037035,0.00991271,1420,0.00175504,3.48693
3,1,Potentiostatic EIS,832.936,3.48695,-0.00159879,801678.625,2.65365,87.7998,0.101879,-2.65169,1.14152,0.00372358,0.00988101,1430,0.00178376,3.48695
3,1,Potentiostatic EIS,833.395,3.48692,-0.00216068,794329,2.63265,87.6165,0.109486,-2.63038,1.21625,0.0037609,0.00990114,1445,0.00181915,3.48692
3,1,Potentiostatic EIS,833.856,3.48693,-0.00204235,787046,2.60883,87.6275,0.107994,-2.60659,1.27755,0.00378249,0.00986783,1295,0.00164539,3.48693
3,1,Potentiostatic EIS,834.316,3.48692,-0.00250466,779830.875,2.58485,87.7688,0.100634,-2.58289,1.05678,0.00383744,0.00991936,1310,0.00167985,3.48692
3,1,Potentiostatic EIS,834.78,3.48695,-0.00202356,772681.375,2.55716,87.5313,0.110146,-2.55479,1.06495,0.00386621,0.0098866,1330,0.00172128,3.48695
3,1,Potentiostatic EIS,835.24,3.48692,-0.00231417,765597.375,2.53917,87.7395,0.100151,-2.53719,1.26111,0.00389899,0.00990023,1350,0.00176333,3.48692
3,1,Potentiostatic EIS,835.706,3.48693,-0.00243668,758578,2.51078,87.6267,0.103971,-2.50863,1.2166,0.00395419,0.00992827,1370,0.00180601,3.48693
3,1,Potentiostatic EIS,836.169,3.48691,-0.00275106,751624,2.49643,87.7025,0.100076,-2.49442,1.27358,0.00397094,0.00991319,1390,0.00184933,3.48691
3,1,Potentiostatic EIS,836.633,3.48692,-0.0031069,744733,2.4689,87.6663,0.10053,-2.46685,1.13004,0.00402133,0.00992848,1410,0.0018933,3.48692
3,1,Potentiostatic EIS,837.097,3.48692,-0.00259925,737905.125,2.45341,87.6897,0.098901,-2.45141,1.04756,0.00404286,0.00991909,1435,0.00194469,3.48692
3,1,Potentiostatic EIS,837.563,3.48692,-0.00306212,731140,2.4316,87.6651,0.099065,-2.42958,1.24065,0.00407609,0.00991161,1310,0.00179172,3.48692
3,1,Potentiostatic EIS,838.029,3.48691,-0.00304674,724437,2.40166,87.6735,0.0974939,-2.39968,1.07207,0.00412403,0.00990458,1340,0.00184971,3.48691
3,1,Potentiostatic EIS,838.496,3.4869,-0.00324661,717795.25,2.38363,87.7828,0.0922183,-2.38185,1.09761,0.00415821,0.00991179,1365,0.00190166,3.4869
3,1,Potentiostatic EIS,838.961,3.4869,-0.00312789,711215,2.36521,87.7543,0.0926825,-2.3634,1.13167,0.00419724,0.00992741,1395,0.00196143,3.4869
3,1,Potentiostatic EIS,839.428,3.48689,-0.00341862,704694,2.34099,87.5745,0.0990731,-2.33889,0.95126,0.00425023,0.0099497,1425,0.00202215,3.48689
3,1,Potentiostatic EIS,839.895,3.48691,-0.00336099,698233.5,2.32256,87.7441,0.0914207,-2.32076,1.16524,0.00427639,0.00993225,1315,0.00188332,3.48691
3,1,Potentiostatic EIS,840.359,3.48691,-0.0036635,691832,2.30139,87.6489,0.0944087,-2.29945,1.16521,0.0043084,0.00991516,1350,0.00195134,3.48691
3,1,Potentiostatic EIS,840.833,3.48689,-0.00370264,685489.375,2.28122,87.5794,0.0963488,-2.27919,1.17938,0.00436795,0.00996429,1385,0.00202045,3.48689
3,1,Potentiostatic EIS,841.302,3.48689,-0.00382154,679205,2.26338,87.5418,0.0970769,-2.26129,1.19815,0.00438662,0.00992867,1420,0.00209068,3.48689
3,1,Potentiostatic EIS,841.768,3.48691,-0.00340498,672978,2.24007,87.4672,0.0989925,-2.23788,1.21038,0.00442372,0.00990938,1320,0.00196143,3.48691
3,1,Potentiostatic EIS,842.238,3.48691,-0.00392746,666808,2.22063,87.4269,0.099692,-2.21839,1.07062,0.00445995,0.00990397,1360,0.00203957,3.48691
3,1,Potentiostatic EIS,842.711,3.4869,-0.00386024,660695,2.19948,87.3444,0.101909,-2.19712,1.17591,0.00450016,0.00989803,1400,0.00211898,3.4869
3,1,Potentiostatic EIS,843.183,3.48689,-0.0037821,654637.375,2.18279,87.3074,0.102543,-2.18038,1.22304,0.004544,0.00991884,1305,0.00199347,3.48689
3,1,Potentiostatic EIS,843.659,3.48688,-0.00412376,648635.625,2.15482,87.3211,0.100715,-2.15246,1.07314,0.00457902,0.00986727,1350,0.00208129,3.48688
3,1,Potentiostatic EIS,844.131,3.4869,-0.00403829,642689,2.13613,87.3147,0.100078,-2.13379,1.10821,0.00461892,0.00986682,1390,0.00216279,3.4869
3,1,Potentiostatic EIS,844.605,3.48687,-0.00444677,636796.75,2.12311,87.3457,0.0983193,-2.12083,1.14023,0.00464426,0.00986036,1305,0.00204932,3.48687
3,1,Potentiostatic EIS,845.083,3.48689,-0.00402009,630959,2.0981,87.1233,0.105299,-2.09546,1.0837,0.00468919,0.0098382,1355,0.00214753,3.48689
3,1,Potentiostatic EIS,845.561,3.4869,-0.00420251,625174,2.08441,87.1311,0.104326,-2.08179,1.11645,0.00472216,0.00984306,1400,0.00223938,3.4869
3,1,Potentiostatic EIS,846.036,3.48688,-0.00429602,619442,2.06493,87.1897,0.10124,-2.06245,1.04763,0.00475425,0.00981734,1320,0.00213095,3.48688
3,1,Potentiostatic EIS,846.514,3.48689,-0.00454495,613763.25,2.0465,87.2379,0.0986186,-2.04412,1.22299,0.00479306,0.00980863,1370,0.00223213,3.48689
3,1,Potentiostatic EIS,846.991,3.48687,-0.00439737,608136,2.0254,87.2448,0.097357,-2.02306,1.17726,0.00483826,0.00979943,1420,0.002335,3.48687
3,1,Potentiostatic EIS,847.472,3.48687,-0.00472193,602560.875,2.0095,87.3154,0.0941216,-2.00729,1.22457,0.00487971,0.0098061,1350,0.00224044,3.48687
3,1,Potentiostatic EIS,847.949,3.48688,-0.00469231,597037,1.9885,87.12,0.0999124,-1.98599,1.13631,0.00491766,0.0097795,1405,0.00235329,3.48688
3,1,Potentiostatic EIS,848.431,3.48688,-0.00472442,591562.875,1.96997,87.1326,0.0985475,-1.96751,1.09238,0.0049577,0.00976704,1335,0.00225673,3.48688
3,1,Potentiostatic EIS,848.914,3.48689,-0.00441809,586139,1.95496,87.1965,0.0956175,-1.95262,1.06107,0.00499466,0.00976442,1390,0.00237145,3.48689
3,1,Potentiostatic EIS,849.398,3.48687,-0.00479899,580766,1.93856,87.085,0.0985841,-1.93605,1.15442,0.00503548,0.00976181,1330,0.00229008,3.48687
3,1,Potentiostatic EIS,849.882,3.48689,-0.00461337,575441.125,1.92171,87.1155,0.0967045,-1.91927,1.23742,0.00506587,0.00973468,1385,0.00240685,3.48689
3,1,Potentiostatic EIS,850.368,3.48687,-0.0050806,570166,1.90303,87.078,0.0970103,-1.90055,1.21998,0.00510505,0.00971462,1325,0.00232389,3.48687
3,1,Potentiostatic EIS,850.86,3.48687,-0.00495819,564938.25,1.88439,87.1635,0.0932517,-1.88208,1.26788,0.00515555,0.00971522,1385,0.0024516,3.48687
3,1,Potentiostatic EIS,851.348,3.48685,-0.00521635,559758.875,1.86985,87.1289,0.0936606,-1.8675,1.27784,0.00518853,0.00970136,1335,0.00238496,3.48685
3,1,Potentiostatic EIS,851.839,3.48687,-0.00508741,554626.875,1.85381,87.1537,0.0920556,-1.85152,1.16861,0.00523694,0.00970766,1395,0.0025152,3.48687
3,1,Potentiostatic EIS,852.331,3.48686,-0.00528036,549542,1.8322,87.1435,0.0913073,-1.82992,1.12227,0.00528748,0.00968721,1345,0.00244749,3.48686
3,1,Potentiostatic EIS,852.823,3.48686,-0.00507664,544504,1.81549,87.1292,0.0909257,-1.81321,1.06809,0.005331,0.00967769,1410,0.00258951,3.48686
3,1,Potentiostatic EIS,853.313,3.48686,-0.00528851,539512,1.80307,87.14,0.0899638,-1.80082,1.11568,0.0053703,0.00968369,1360,0.0025208,3.48686
3,1,Potentiostatic EIS,853.805,3.4869,-0.00506765,534566,1.78407,87.1784,0.0878221,-1.78191,1.12479,0.00541346,0.00965739,1320,0.00246929,3.4869
3,1,Potentiostatic EIS,854.344,3.48685,-0.00555595,529665,1.77149,87.1163,0.0891224,-1.76924,1.0738,0.00562724,0.00996866,1385,0.00261486,3.48685
3,1,Potentiostatic EIS,854.877,3.48685,-0.00539003,524808.75,1.75263,87.1275,0.0878309,-1.75043,1.23193,0.00569799,0.00998643,1345,0.00256284,3.48685
3,1,Potentiostatic EIS,855.417,3.48683,-0.00596073,519997.25,1.74066,87.1219,0.0873998,-1.73847,1.31142,0.0057433,0.00999716,1415,0.00272117,3.48683
3,1,Potentiostatic EIS,855.956,3.48683,-0.00584256,515230,1.72487,87.1003,0.0872582,-1.72266,1.08205,0.00576821,0.00994946,1380,0.00267842,3.48683
3,1,Potentiostatic EIS,856.503,3.48681,-0.00605488,510506.25,1.7095,87.2448,0.0821743,-1.70752,1.10549,0.00582272,0.00995396,1345,0.00263464,3.48681
3,1,Potentiostatic EIS,857.043,3.48682,-0.00584859,505826,1.69364,87.323,0.0791009,-1.69179,1.01226,0.00589368,0.0099818,1315,0.00259971,3.48682
3,1,Potentiostatic EIS,857.589,3.48683,-0.00590003,501188,1.6782,87.1384,0.0837816,-1.67611,1.13837,0.00594433,0.00997582,1385,0.00276343,3.48683
3,1,Potentiostatic EIS,858.131,3.48681,-0.00553775,496594,1.66352,87.231,0.0803639,-1.66158,1.18834,0.00597587,0.00994103,1355,0.00272859,3.48681
3,1,Potentiostatic EIS,858.672,3.48684,-0.00582188,492041,1.64769,87.2956,0.0777428,-1.64585,1.03316,0.00604348,0.00995781,1330,0.00270303,3.48684
3,1,Potentiostatic EIS,859.22,3.48684,-0.00580688,487530,1.63422,87.0997,0.0826891,-1.63213,1.35075,0.0060791,0.00993465,1405,0.00288188,3.48684
3,1,Potentiostatic EIS,859.76,3.48684,-0.00564129,483060,1.61787,87.0595,0.0829938,-1.61574,1.25618,0.00615039,0.00995059,1385,0.00286714,3.48684
3,1,Potentiostatic EIS,860.307,3.48684,-0.00583882,478631,1.60408,87.0298,0.0831169,-1.60193,1.21402,0.00621211,0.00996481,1365,0.00285188,3.48684
3,1,Potentiostatic EIS,860.856,3.48683,-0.00558683,474243,1.59014,86.9502,0.0846019,-1.58789,1.17061,0.0062581,0.00995126,1345,0.0028361,3.48683
3,1,Potentiostatic EIS,861.395,3.48684,-0.00573285,469895,1.57387,86.9241,0.0844523,-1.5716,1.13762,0.00631781,0.00994348,1325,0.00281978,3.48684
3,1,Potentiostatic EIS,861.943,3.48682,-0.00570014,465587,1.55822,86.8504,0.0856131,-1.55586,1.16377,0.00638544,0.00994991,1405,0.00301769,3.48682
3,1,Potentiostatic EIS,862.492,3.48682,-0.0059137,461319,1.54749,86.7205,0.0885268,-1.54495,1.03192,0.00642761,0.00994666,1395,0.00302394,3.48682
3,1,Potentiostatic EIS,863.05,3.48683,-0.00599724,457090,1.53001,86.7706,0.0861903,-1.52758,1.06558,0.00649416,0.00993611,1380,0.0030191,3.48683
3,1,Potentiostatic EIS,863.602,3.48683,-0.00627143,452899,1.51893,86.7906,0.0850382,-1.51654,1.25393,0.00654222,0.00993714,1370,0.00302496,3.48683
3,1,Potentiostatic EIS,864.139,3.48684,-0.00580155,448747,1.50581,86.7252,0.0860193,-1.50335,1.02686,0.00660288,0.00994266,1360,0.00303066,3.48684
3,1,Potentiostatic EIS,864.673,3.4868,-0.00633688,444633,1.49263,86.6273,0.0878129,-1.49004,1.26341,0.00665204,0.00992902,1355,0.00304746,3.4868
3,1,Potentiostatic EIS,865.217,3.48681,-0.00581951,440556,1.47759,86.6665,0.0859178,-1.47509,1.20277,0.00672206,0.00993256,1350,0.00306431,3.48681
3,1,Potentiostatic EIS,865.765,3.48684,-0.00577237,436517,1.46726,86.7034,0.0843734,-1.46483,1.12062,0.00677399,0.00993928,1345,0.00308121,3.48684
3,1,Potentiostatic EIS,866.33,3.48683,-0.0058176,432515.25,1.45299,86.5703,0.0869222,-1.45038,1.20265,0.00684168,0.00994103,1345,0.00310972,3.48683
3,1,Potentiostatic EIS,866.876,3.48685,-0.00550617,428550,1.44138,86.5278,0.0872967,-1.43873,1.19739,0.00689991,0.00994533,1345,0.00313849,3.48685
3,1,Potentiostatic EIS,867.434,3.48681,-0.00608471,424621,1.42658,86.5196,0.0866027,-1.42395,1.19764,0.00695791,0.00992604,1345,0.00316753,3.48681
3,1,Potentiostatic EIS,867.988,3.48684,-0.00572605,420728,1.41405,86.6079,0.0836684,-1.41158,1.22781,0.00704395,0.00996054,1350,0.00320872,3.48684
3,1,Potentiostatic EIS,868.533,3.48682,-0.00596235,416871,1.40366,86.5229,0.0851309,-1.40108,1.23523,0.00707971,0.0099375,1355,0.00325041,3.48682
3,1,Potentiostatic EIS,869.077,3.48684,-0.00583463,413049,1.39023,86.3943,0.0874303,-1.38748,1.15876,0.00717429,0.009974,1360,0.00329259,3.48684
3,1,Potentiostatic EIS,869.624,3.48681,-0.00649806,409262,1.37905,86.4982,0.0842332,-1.37648,1.25679,0.00722754,0.00996719,1365,0.00333527,3.48681
3,1,Potentiostatic EIS,870.177,3.48681,-0.00629239,405510,1.36752,86.4328,0.0850859,-1.36487,1.09669,0.00728468,0.00996197,1375,0.00339079,3.48681
3,1,Potentiostatic EIS,870.729,3.48683,-0.00640024,401792,1.3571,86.5654,0.0813023,-1.35466,1.27347,0.00732952,0.00994689,1385,0.00344706,3.48683
3,1,Potentiostatic EIS,871.288,3.48682,-0.00623889,398109,1.34176,86.4371,0.0833826,-1.33916,1.12347,0.00742125,0.00995752,1400,0.00351663,3.48682
3,1,Potentiostatic EIS,871.842,3.48682,-0.00617218,394459,1.3319,86.3955,0.0837345,-1.32927,1.08494,0.00746738,0.00994588,1330,0.00337171,3.48682
3,1,Potentiostatic EIS,872.401,3.48682,-0.00623102,390842,1.31865,86.4111,0.082543,-1.31606,1.25532,0.00754691,0.00995172,1345,0.00344129,3.48682
3,1,Potentiostatic EIS,872.957,3.48683,-0.0059777,387259,1.30665,86.3435,0.0833298,-1.30399,1.01631,0.00761977,0.00995634,1365,0.00352477,3.48683
3,1,Potentiostatic EIS,873.517,3.48681,-0.00630847,383708.625,1.29367,86.3285,0.0828407,-1.29101,1.06892,0.00769473,0.00995447,1380,0.00359648,3.48681
3,1,Potentiostatic EIS,874.08,3.4868,-0.00610563,380191,1.28157,86.2807,0.0831329,-1.27887,1.22783,0.00775907,0.00994386,1400,0.00368236,3.4868
3,1,Potentiostatic EIS,874.642,3.4868,-0.00684084,376705,1.27113,86.4185,0.0794044,-1.26865,1.26857,0.00783041,0.00995351,1345,0.00357043,3.4868
3,1,Potentiostatic EIS,875.209,3.4868,-0.00628945,373252,1.2591,86.2371,0.0826321,-1.25638,1.14458,0.0079056,0.0099539,1365,0.00365705,3.4868
3,1,Potentiostatic EIS,875.781,3.48679,-0.0063565,369830,1.24773,86.3622,0.0791668,-1.24522,1.17916,0.00796324,0.00993603,1390,0.00375849,3.48679
3,1,Potentiostatic EIS,876.352,3.48681,-0.00647491,366439,1.23755,86.2754,0.0803922,-1.23494,1.13082,0.00803179,0.00993977,1340,0.00365682,3.48681
3,1,Potentiostatic EIS,876.923,3.4868,-0.00671001,363079,1.22364,86.3285,0.078357,-1.22113,1.09812,0.00812278,0.0099394,1365,0.00375951,3.4868
3,1,Potentiostatic EIS,877.501,3.48679,-0.00691406,359751,1.21451,86.296,0.078459,-1.21197,1.10577,0.00818055,0.00993536,1395,0.00387769,3.48679
3,1,Potentiostatic EIS,878.079,3.4868,-0.00670421,356452,1.20151,86.2328,0.0789435,-1.19892,1.27062,0.00828057,0.00994919,1350,0.00378732,3.4868
3,1,Potentiostatic EIS,878.658,3.48679,-0.00702617,353185,1.19177,86.0994,0.0810713,-1.189,1.27987,0.0083283,0.00992543,1380,0.00390731,3.48679
3,1,Potentiostatic EIS,879.237,3.48679,-0.00689498,349946.5,1.18178,86.1794,0.0787443,-1.17916,1.25381,0.00839964,0.00992653,1340,0.00382916,3.48679
3,1,Potentiostatic EIS,879.825,3.48679,-0.00689978,346738,1.17014,86.279,0.07594,-1.16767,1.15487,0.00849074,0.0099353,1375,0.00396553,3.48679
3,1,Potentiostatic EIS,880.408,3.48678,-0.0070253,343559,1.1605,86.2571,0.0757577,-1.15803,1.20581,0.00855948,0.00993333,1340,0.00390035,3.48678
3,1,Potentiostatic EIS,880.993,3.48679,-0.00676226,340410,1.15006,86.0786,0.0786498,-1.14736,1.31159,0.00864712,0.00994472,1375,0.00403925,3.48679
3,1,Potentiostatic EIS,881.578,3.4868,-0.00720505,337288.625,1.14022,86.2076,0.0754163,-1.13772,1.03086,0.00871116,0.00993263,1345,0.00398768,3.4868
3,1,Potentiostatic EIS,882.175,3.4868,-0.00696873,334196,1.12909,86.0959,0.0768765,-1.12647,1.1732,0.00878226,0.00991603,1380,0.00412931,3.4868
3,1,Potentiostatic EIS,882.768,3.48679,-0.00742698,331132.5,1.11956,86.0794,0.076549,-1.11694,1.24901,0.00888281,0.00994484,1355,0.00409202,3.48679
3,1,Potentiostatic EIS,883.366,3.48677,-0.00762488,328097,1.10863,86.0817,0.0757568,-1.10603,1.15659,0.00896796,0.00994214,1395,0.0042518,3.48677
3,1,Potentiostatic EIS,883.967,3.48676,-0.00772514,325089,1.10013,86.0708,0.0753858,-1.09754,1.10474,0.00903639,0.00994119,1370,0.00421424,3.48676
3,1,Potentiostatic EIS,884.569,3.48676,-0.00782449,322108.25,1.09019,86.1576,0.0730551,-1.08774,1.22778,0.00911497,0.00993705,1345,0.00417561,3.48676
3,1,Potentiostatic EIS,885.17,3.48676,-0.00732966,319155.125,1.08054,86.1626,0.0723143,-1.07811,1.08508,0.00920841,0.00995006,1390,0.00435525,3.48676
3,1,Potentiostatic EIS,885.777,3.48676,-0.00748927,316229,1.07105,86.0239,0.0742663,-1.06848,1.13419,0.00929079,0.00995095,1370,0.0043323,3.48676
3,1,Potentiostatic EIS,886.386,3.48678,-0.00745024,313329.875,1.05823,86.0708,0.0725135,-1.05575,1.25999,0.00938692,0.0099336,1355,0.00432452,3.48678
3,1,Potentiostatic EIS,887.002,3.48677,-0.00745266,310457,1.05105,85.9338,0.0745288,-1.0484,1.1728,0.00947054,0.00995397,1340,0.00431621,3.48677
3,1,Potentiostatic EIS,887.618,3.48674,-0.00796215,307611,1.04165,86.0497,0.0717606,-1.03918,1.08954,0.00953268,0.00992977,1390,0.00451869,3.48674
3,1,Potentiostatic EIS,888.232,3.48677,-0.00730036,304790.875,1.03473,85.8815,0.0743147,-1.03206,1.17253,0.00960734,0.00994106,1375,0.00451129,3.48677
3,1,Potentiostatic EIS,888.856,3.48675,-0.00759445,301997,1.02328,85.8212,0.0745661,-1.02056,1.2173,0.0097147,0.00994099,1365,0.00451992,3.48675
3,1,Potentiostatic EIS,889.48,3.48674,-0.00763329,299228,1.01613,85.7667,0.0750081,-1.01336,1.185,0.00979255,0.0099506,1360,0.00454503,3.48674
3,1,Potentiostatic EIS,890.105,3.48675,-0.00773039,296484.5,1.00611,85.7809,0.0740203,-1.00338,1.17156,0.0098774,0.00993773,1350,0.00455336,3.48675
3,1,Potentiostatic EIS,890.726,3.48675,-0.00782538,293766,0.998015,85.6928,0.0749544,-0.995197,1.1024,0.00997288,0.00995309,1345,0.00457847,3.48675
3,1,Potentiostatic EIS,891.353,3.48675,-0.00747867,291073,0.990516,85.6965,0.0743273,-0.987723,1.30851,0.0100395,0.00994436,1340,0.00460366,3.48675
3,1,Potentiostatic EIS,891.981,3.48675,-0.00742921,288405,0.980545,85.6226,0.07484,-0.977685,1.03175,0.0101471,0.00994965,1340,0.00464625,3.48675
3,1,Potentiostatic EIS,892.616,3.48676,-0.00772388,285760,0.973012,85.7204,0.0726098,-0.970299,1.08404,0.0102306,0.0099545,1340,0.00468924,3.48676
3,1,Potentiostatic EIS,893.252,3.48675,-0.00763251,283141,0.965028,85.5767,0.074427,-0.962153,1.19143,0.0103264,0.0099653,1340,0.00473263,3.48675
3,1,Potentiostatic EIS,893.887,3.48674,-0.00793791,280545,0.955925,85.6577,0.0723781,-0.953181,1.17405,0.0104116,0.0099527,1345,0.00479424,3.48674
3,1,Potentiostatic EIS,894.527,3.48673,-0.00786724,277973,0.948523,85.6355,0.0721839,-0.945772,2.56247,0.0105055,0.00996469,1350,0.00485659,3.48673
3,1,Potentiostatic EIS,895.167,3.48673,-0.0076873,275424,0.941037,85.5502,0.0730116,-0.9382,1.18008,0.0105939,0.00996928,1355,0.00491968,3.48673
3,1,Potentiostatic EIS,895.814,3.48671,-0.00802864,272899,0.930563,85.5295,0.0725339,-0.927732,1.17827,0.0107244,0.00997974,1365,0.00500185,3.48671
3,1,Potentiostatic EIS,896.467,3.48672,-0.00817679,270397,0.924059,85.4299,0.0736271,-0.921121,1.26161,0.0107739,0.0099557,1370,0.00506662,3.48672
3,1,Potentiostatic EIS,897.142,3.48672,-0.00799279,267918,0.914242,85.518,0.0714442,-0.911446,1.27356,0.0109111,0.00997538,1385,0.00516949,3.48672
3,1,Potentiostatic EIS,897.914,3.48673,-0.00807477,265462,0.907097,85.443,0.0720692,-0.904229,1.11957,0.010996,0.00997443,1340,0.0050478,3.48673
3,1,Potentiostatic EIS,898.565,3.48673,-0.00832796,263028,0.897948,85.3794,0.0723356,-0.89503,1.07196,0.0110907,0.0099589,1355,0.00515154,3.48673
3,1,Potentiostatic EIS,899.22,3.48673,-0.00806936,260616.75,0.889476,85.4682,0.0702796,-0.886695,1.29256,0.0111915,0.00995459,1370,0.00525676,3.48673
3,1,Potentiostatic EIS,899.881,3.48672,-0.00827419,258227,0.881028,85.3781,0.0709938,-0.878163,1.1414,0.0113005,0.00995613,1385,0.00536349,3.48672
3,1,Potentiostatic EIS,900.545,3.48671,-0.00846708,255860,0.874806,85.4081,0.0700345,-0.871999,1.15996,0.0113915,0.00996541,1350,0.00527632,3.48671
3,1,Potentiostatic EIS,901.214,3.48672,-0.00809674,253514,0.866539,85.2811,0.0712875,-0.863601,1.33496,0.0115354,0.00999593,1370,0.00540403,3.48672
3,1,Potentiostatic EIS,901.886,3.48671,-0.00852656,251190,0.860128,85.3213,0.0701592,-0.857261,1.2441,0.0115722,0.00995359,1340,0.00533461,3.48671
3,1,Potentiostatic EIS,902.561,3.4867,-0.0084043,248887,0.852199,85.3343,0.0693196,-0.849375,1.10179,0.0117214,0.00998901,1365,0.00548441,3.4867
3,1,Potentiostatic EIS,903.235,3.48671,-0.00842771,246605,0.844258,85.2604,0.0697595,-0.841371,1.31125,0.0118184,0.00997788,1385,0.00561626,3.48671
3,1,Potentiostatic EIS,903.908,3.48669,-0.00874036,244344,0.836605,85.4326,0.06662,-0.833949,1.2603,0.0118947,0.00995123,1360,0.00556591,3.48669
3,1,Potentiostatic EIS,904.585,3.48669,-0.0088609,242104,0.831084,85.2629,0.0686339,-0.828245,1.17198,0.0119685,0.00994689,1340,0.00553481,3.48669
3,1,Potentiostatic EIS,905.274,3.48669,-0.00879767,239885,0.823013,85.314,0.0672363,-0.820262,1.3176,0.0120882,0.00994881,1365,0.00569023,3.48669
3,1,Potentiostatic EIS,905.968,3.48669,-0.00886933,237685,0.813997,85.2737,0.0670704,-0.811229,1.10277,0.0121977,0.00992878,1345,0.00565874,3.48669
3,1,Potentiostatic EIS,906.66,3.4867,-0.00885506,235506,0.807774,85.4143,0.0645817,-0.805188,1.31482,0.0122654,0.00990793,1380,0.00585972,3.4867
3,1,Potentiostatic EIS,907.351,3.4867,-0.0087162,233347,0.80089,85.2193,0.0667486,-0.798104,1.76447,0.0123507,0.0098916,1360,0.00582823,3.4867
3,1,Potentiostatic EIS,908.047,3.48668,-0.0088291,231208,0.793598,85.3177,0.0647816,-0.790949,1.23895,0.0124553,0.00988469,1350,0.0058389,3.48668
3,1,Potentiostatic EIS,908.748,3.48667,-0.00920497,229088.125,0.786457,85.3329,0.0639914,-0.783849,1.29344,0.0125442,0.00986543,1380,0.00602388,3.48667
3,1,Potentiostatic EIS,909.458,3.48666,-0.0094995,226988,0.779137,85.3453,0.063227,-0.776567,1.16842,0.0126393,0.00984777,1370,0.00603557,3.48666
3,1,Potentiostatic EIS,910.177,3.48667,-0.0093368,224907,0.775079,85.2888,0.06366,-0.77246,1.27611,0.0127181,0.0098575,1360,0.00604695,3.48667
3,1,Potentiostatic EIS,910.883,3.48666,-0.0098411,222845,0.76682,85.2887,0.0629832,-0.764229,1.44331,0.0128318,0.00983964,1355,0.00608046,3.48666
3,1,Potentiostatic EIS,911.602,3.48665,-0.00968015,220802,0.758324,85.2197,0.063195,-0.755687,1.30506,0.0129634,0.00983036,1350,0.00611408,3.48665
3,1,Potentiostatic EIS,912.317,3.48665,-0.00945192,218777,0.752652,85.239,0.0624695,-0.750055,1.22052,0.0130346,0.00981082,1345,0.0061478,3.48665
3,1,Potentiostatic EIS,913.042,3.48666,-0.00929519,216771.75,0.746261,85.348,0.0605247,-0.743802,1.33841,0.0131151,0.00978811,1345,0.00620468,3.48666
3,1,Potentiostatic EIS,913.765,3.48666,-0.0094229,214784,0.739604,85.2059,0.0618121,-0.737016,1.22944,0.0132398,0.00979281,1345,0.00626209,3.48666
3,1,Potentiostatic EIS,914.492,3.48666,-0.00928735,212815,0.732068,85.1348,0.0620876,-0.72943,1.22401,0.0133209,0.00975169,1345,0.00632004,3.48666
3,1,Potentiostatic EIS,915.224,3.48664,-0.00933723,210864,0.724722,85.1296,0.0615306,-0.722105,1.29233,0.013428,0.00973108,1345,0.00637852,3.48664
3,1,Potentiostatic EIS,915.959,3.48667,-0.0091196,208931,0.718224,85.1945,0.0601682,-0.715699,1.13871,0.0135332,0.00972033,1350,0.00646146,3.48667
3,1,Potentiostatic EIS,916.703,3.48667,-0.00932295,207015,0.712178,85.1064,0.0607522,-0.709582,1.23399,0.0136247,0.0097036,1355,0.00654541,3.48667
3,1,Potentiostatic EIS,917.448,3.48666,-0.00905595,205118,0.705579,85.0674,0.0606681,-0.702966,1.26561,0.0137192,0.0096786,1365,0.00665472,3.48666
3,1,Potentiostatic EIS,918.191,3.48669,-0.00908113,203237,0.697614,85.1691,0.0587503,-0.695136,1.2967,0.013876,0.00968052,1375,0.0067655,3.48669
3,1,Potentiostatic EIS,918.94,3.48666,-0.00943178,201374,0.692722,85.0232,0.060095,-0.69011,1.25385,0.013947,0.00966184,1385,0.00687776,3.48666
3,1,Potentiostatic EIS,919.7,3.48665,-0.00930993,199528,0.686244,85.0485,0.0592308,-0.683683,1.26047,0.0140556,0.00964514,1355,0.00679104,3.48665
3,1,Potentiostatic EIS,920.458,3.48666,-0.00909081,197698,0.680686,84.8997,0.060513,-0.677991,1.26801,0.0141588,0.00963729,1365,0.00690446,3.48666
3,1,Potentiostatic EIS,921.252,3.48665,-0.00946016,195886,0.674595,84.9724,0.0591191,-0.671999,1.34599,0.0147474,0.00994857,1380,0.00704492,3.48665
3,1,Potentiostatic EIS,922.081,3.48663,-0.00951073,194090,0.669447,84.9586,0.0588275,-0.666857,1.1741,0.0148554,0.009945,1360,0.00700706,3.48663
3,1,Potentiostatic EIS,922.912,3.48664,-0.00977983,192310,0.664053,84.8396,0.0597272,-0.661361,1.20742,0.0149391,0.00992042,1375,0.0071499,3.48664
3,1,Potentiostatic EIS,923.751,3.48662,-0.0100644,190547,0.657711,84.7679,0.0599769,-0.65497,1.23421,0.0151253,0.00994813,1355,0.00711109,3.48662
3,1,Potentiostatic EIS,924.596,3.48662,-0.00982204,188800,0.652255,84.8293,0.0587834,-0.649601,1.20577,0.0152801,0.00996657,1375,0.00728282,3.48662
3,1,Potentiostatic EIS,925.44,3.48663,-0.00943502,187070,0.647485,84.8529,0.0580881,-0.644874,1.22605,0.0153767,0.00995621,1360,0.00727002,3.48663
3,1,Potentiostatic EIS,926.288,3.48663,-0.00945978,185354,0.641279,84.8012,0.0581071,-0.638641,1.17426,0.0154914,0.00993434,1345,0.00725637,3.48663
3,1,Potentiostatic EIS,927.152,3.48665,-0.00922448,183655,0.635855,84.8338,0.0572552,-0.633272,1.10299,0.0156473,0.00994946,1370,0.00745963,3.48665
3,1,Potentiostatic EIS,928.013,3.48662,-0.0094943,181971,0.630026,84.6537,0.0587025,-0.627285,1.39886,0.0157724,0.00993698,1360,0.0074737,3.48662
3,1,Potentiostatic EIS,928.877,3.48663,-0.00997401,180303,0.62438,84.5831,0.0589427,-0.621591,1.31932,0.0159083,0.00993283,1350,0.00748739,3.48663
3,1,Potentiostatic EIS,929.741,3.48663,-0.0096682,178650,0.619529,84.6018,0.0582833,-0.616781,1.24296,0.0160393,0.00993681,1380,0.0077246,3.48663
3,1,Potentiostatic EIS,930.615,3.48661,-0.01023,177012,0.614756,84.5722,0.0581511,-0.612,1.09033,0.0161892,0.00995252,1375,0.00776783,3.48661
3,1,Potentiostatic EIS,931.496,3.48662,-0.00987067,175389.375,0.609418,84.5114,0.0582891,-0.606624,1.4324,0.0163518,0.00996507,1370,0.00781119,3.48662
3,1,Potentiostatic EIS,932.381,3.48662,-0.00962746,173781,0.603846,84.4273,0.0586383,-0.600992,1.30357,0.0164912,0.00995825,1365,0.0078547,3.48662
3,1,Potentiostatic EIS,933.272,3.48661,-0.0097917,172188,0.598622,84.4704,0.0576829,-0.595836,1.26954,0.0166421,0.00996235,1365,0.00792738,3.48661
3,1,Potentiostatic EIS,934.163,3.4866,-0.00967371,170609,0.593529,84.3646,0.0582836,-0.59066,1.21305,0.0167965,0.00996924,1365,0.00800073,3.4866
3,1,Potentiostatic EIS,935.062,3.4866,-0.00986501,169045,0.587304,84.4532,0.0567676,-0.584554,1.28243,0.0169506,0.00995519,1365,0.00807476,3.4866
3,1,Potentiostatic EIS,935.968,3.4866,-0.0100905,167495,0.583319,84.4038,0.0568831,-0.580539,1.27921,0.017084,0.00996551,1370,0.00817932,3.4866
3,1,Potentiostatic EIS,936.874,3.48658,-0.0104463,165960,0.577685,84.3238,0.0571367,-0.574852,1.36417,0.0172309,0.00995406,1375,0.00828513,3.48658
3,1,Potentiostatic EIS,937.793,3.48659,-0.0103479,164438,0.572674,84.3141,0.0567381,-0.569857,1.36303,0.0173893,0.00995843,1350,0.00820976,3.48659
3,1,Potentiostatic EIS,938.708,3.48661,-0.0102267,162930.875,0.567263,84.1905,0.0574195,-0.56435,1.31505,0.0175613,0.00996194,1355,0.00831641,3.48661
3,1,Potentiostatic EIS,939.631,3.4866,-0.0103986,161437,0.562959,84.2312,0.0565859,-0.560108,1.38196,0.0177199,0.00997557,1365,0.00845531,3.4866
3,1,Potentiostatic EIS,940.557,3.48661,-0.0100973,159957,0.557153,84.2901,0.0554321,-0.554389,1.25694,0.0178892,0.00996705,1380,0.00862732,3.48661
3,1,Potentiostatic EIS,941.482,3.48661,-0.0100489,158491,0.552245,84.0854,0.0569067,-0.549305,1.39237,0.0180279,0.00995582,1360,0.00858096,3.48661
3,1,Potentiostatic EIS,942.417,3.48662,-0.00964052,157037,0.547266,84.1127,0.0561344,-0.544379,1.30708,0.0181939,0.00995693,1375,0.00875587,3.48662
3,1,Potentiostatic EIS,943.348,3.4866,-0.00987031,155598,0.54274,84.1801,0.055035,-0.539943,1.33525,0.0183728,0.00997163,1360,0.00874049,3.4866
3,1,Potentiostatic EIS,944.291,3.48661,-0.00969559,154171,0.537353,84.1474,0.0547933,-0.534552,1.24602,0.0185572,0.00997177,1375,0.00891865,3.48661
3,1,Potentiostatic EIS,945.241,3.48658,-0.0100306,152758,0.533025,84.0355,0.0553878,-0.530139,1.35928,0.0186475,0.00993954,1360,0.00890298,3.48658
3,1,Potentiostatic EIS,946.187,3.48659,-0.0102996,151357,0.530574,84.1374,0.0541942,-0.527799,1.33038,0.0187689,0.00995829,1350,0.00891929,3.48659
3,1,Potentiostatic EIS,947.15,3.48657,-0.0105851,149970,0.524312,84.1518,0.0534239,-0.521583,1.46323,0.019015,0.00996978,1375,0.00916852,3.48657
3,1,Potentiostatic EIS,948.109,3.48657,-0.0106571,148594.75,0.519683,84.1319,0.0531317,-0.51696,1.19936,0.0192306,0.00999378,1365,0.00918606,3.48657
3,1,Potentiostatic EIS,949.072,3.48655,-0.0109046,147232,0.515335,83.992,0.0539387,-0.512504,1.33878,0.0193389,0.00996599,1360,0.0092371,3.48655
3,1,Potentiostatic EIS,950.044,3.48658,-0.0105525,145883,0.510953,84.0991,0.0525304,-0.508246,1.14167,0.0195422,0.00998516,1355,0.00928829,3.48658
3,1,Potentiostatic EIS,951.02,3.48657,-0.0106526,144545,0.506386,84.0935,0.0521096,-0.503698,1.22805,0.019709,0.00998028,1355,0.00937423,3.48657
3,1,Potentiostatic EIS,952.004,3.48657,-0.0105942,143220,0.501894,84.1375,0.0512646,-0.499269,1.25451,0.0198694,0.00997231,1355,0.00946098,3.48657
3,1,Potentiostatic EIS,952.998,3.48657,-0.0105755,141907,0.497995,84.1809,0.0504903,-0.495428,1.35544,0.0200107,0.0099652,1355,0.00954851,3.48657
3,1,Potentiostatic EIS,953.987,3.48657,-0.0106162,140606,0.493576,84.05,0.0511647,-0.490917,1.25302,0.0202153,0.00997785,1355,0.00963687,3.48657
3,1,Potentiostatic EIS,954.994,3.48657,-0.0107552,139317,0.489261,84.0016,0.0511282,-0.486583,1.36505,0.0203664,0.00996451,1360,0.00976192,3.48657
3,1,Potentiostatic EIS,955.994,3.48655,-0.0111147,138040,0.485949,83.9567,0.051161,-0.483248,1.36571,0.0205735,0.00999777,1365,0.00988847,3.48655
3,1,Potentiostatic EIS,957.004,3.48656,-0.0107967,136774,0.481033,83.9362,0.050814,-0.478342,1.22033,0.0206875,0.0099514,1375,0.0100531,3.48656
3,1,Potentiostatic EIS,958.027,3.48655,-0.0107119,135520,0.476822,83.8497,0.0510852,-0.474077,1.16507,0.0209411,0.00998521,1355,0.00999852,3.48655
3,1,Potentiostatic EIS,959.047,3.48657,-0.0108729,134277.625,0.473161,83.709,0.051848,-0.470312,1.43323,0.0211232,0.00999474,1365,0.0101655,3.48657
3,1,Potentiostatic EIS,960.079,3.48654,-0.0108471,133047,0.469693,83.6508,0.0519425,-0.466812,1.48846,0.0212698,0.00999028,1350,0.0101468,3.48654
3,1,Potentiostatic EIS,961.114,3.48655,-0.0108246,131826.75,0.464508,83.7881,0.0502622,-0.461781,1.54345,0.0214368,0.00995768,1365,0.0103545,3.48655
3,1,Potentiostatic EIS,962.205,3.48654,-0.011,130618,0.460836,83.7087,0.0504996,-0.45806,1.3765,0.0216555,0.00997966,1350,0.0103355,3.48654
3,1,Potentiostatic EIS,963.435,3.48656,-0.0108462,129421,0.455783,83.5446,0.0512434,-0.452893,1.45309,0.0218536,0.00996052,1365,0.010547,3.48656
3,1,Potentiostatic EIS,964.487,3.48654,-0.0113605,128234,0.452477,83.4981,0.0512366,-0.449567,1.2542,0.0220719,0.00998707,1360,0.0106056,3.48654
3,1,Potentiostatic EIS,965.546,3.48652,-0.0113724,127058,0.448861,83.5651,0.0503057,-0.446033,1.40304,0.0222713,0.00999672,1350,0.010625,3.48652
3,1,Potentiostatic EIS,966.612,3.48654,-0.0113124,125894,0.445389,83.4299,0.0509607,-0.442464,1.26439,0.0224169,0.00998427,1370,0.0108822,3.48654
3,1,Potentiostatic EIS,967.685,3.48651,-0.0116454,124739,0.44133,83.4455,0.0503768,-0.438445,1.44935,0.0226387,0.00999111,1370,0.0109829,3.48651
3,1,Potentiostatic EIS,968.761,3.48652,-0.0117089,123596,0.436926,83.3567,0.0505472,-0.433993,1.41454,0.0228955,0.0100037,1365,0.0110441,3.48652
3,1,Potentiostatic EIS,969.847,3.48649,-0.0118614,122463,0.433829,83.3114,0.0505296,-0.430876,1.35705,0.0230508,0.0100001,1365,0.0111463,3.48649
3,1,Potentiostatic EIS,970.944,3.48648,-0.0122428,121340,0.429365,83.2361,0.0505702,-0.426376,1.54214,0.0232506,0.00998305,1370,0.0112906,3.48648
3,1,Potentiostatic EIS,972.043,3.48648,-0.0121313,120228,0.425687,83.2806,0.0498086,-0.422763,1.26742,0.0234831,0.00999644,1370,0.0113951,3.48648
3,1,Potentiostatic EIS,973.151,3.48647,-0.0124924,119125,0.422723,83.2792,0.0494719,-0.419818,1.30722,0.0235802,0.00996798,1375,0.0115425,3.48647
3,1,Potentiostatic EIS,974.262,3.48647,-0.0124178,118033.125,0.419001,83.2271,0.0494146,-0.416077,1.33881,0.0238694,0.0100013,1355,0.0114798,3.48647
3,1,Potentiostatic EIS,975.378,3.48647,-0.0123341,116951,0.414617,83.2007,0.049087,-0.411701,1.57645,0.0239633,0.00993557,1365,0.0116716,3.48647
3,1,Potentiostatic EIS,976.501,3.48649,-0.0121016,115879,0.410385,83.2185,0.0484597,-0.407514,1.42998,0.0243449,0.00999077,1375,0.0118658,3.48649
3,1,Potentiostatic EIS,977.63,3.48648,-0.0124805,114816,0.407151,83.0942,0.0489545,-0.404197,1.46184,0.0245117,0.00997995,1360,0.011845,3.48648
3,1,Potentiostatic EIS,978.768,3.48647,-0.0122658,113763.75,0.403882,83.073,0.0487104,-0.400934,1.49406,0.0246726,0.00996488,1370,0.0120425,3.48647
3,1,Potentiostatic EIS,979.915,3.48648,-0.0120565,112721,0.399902,82.9866,0.0488287,-0.39691,1.29792,0.0249396,0.00997339,1365,0.0121096,3.48648
3,1,Potentiostatic EIS,981.065,3.48645,-0.0125269,111687,0.396237,83.0305,0.0480799,-0.393309,1.46136,0.0251844,0.00997909,1355,0.0121321,3.48645
3,1,Potentiostatic EIS,982.226,3.48648,-0.0120886,110663,0.393208,82.9174,0.0484828,-0.390208,1.46646,0.0254356,0.0100015,1370,0.0123799,3.48648
3,1,Potentiostatic EIS,983.387,3.48645,-0.0127543,109649,0.389388,82.857,0.0484189,-0.386366,1.42161,0.0256269,0.00997887,1365,0.0124488,3.48645
3,1,Potentiostatic EIS,984.561,3.48648,-0.0117726,108644,0.386123,82.9143,0.04763,-0.383174,1.43412,0.0258467,0.00997999,1365,0.012564,3.48648
3,1,Potentiostatic EIS,985.735,3.48647,-0.0119549,107647,0.382489,82.7405,0.0483324,-0.379423,1.52642,0.0260912,0.00997964,1365,0.0126803,3.48647
3,1,Potentiostatic EIS,986.926,3.48644,-0.0127203,106661,0.37933,82.9097,0.0468223,-0.37643,1.46232,0.0262951,0.00997458,1365,0.0127976,3.48644
3,1,Potentiostatic EIS,988.124,3.48645,-0.0126029,105683,0.376274,82.7992,0.0471646,-0.373306,1.55348,0.026518,0.00997809,1365,0.012916,3.48645
3,1,Potentiostatic EIS,989.328,3.48646,-0.0123158,104714,0.372034,82.8298,0.0464363,-0.369125,1.47685,0.0267869,0.0099657,1370,0.0130833,3.48646
3,1,Potentiostatic EIS,990.542,3.48645,-0.012034,103754,0.368809,82.7127,0.0467812,-0.36583,1.58649,0.0270501,0.0099763,1355,0.0130598,3.48645
3,1,Potentiostatic EIS,991.754,3.48645,-0.0124623,102803,0.365496,82.7033,0.0464204,-0.362536,2.1045,0.0272468,0.00995862,1360,0.0132292,3.48645
3,1,Potentiostatic EIS,992.979,3.48641,-0.0133784,101860,0.36224,82.8678,0.0449757,-0.359437,1.45314,0.0275466,0.00997856,1370,0.0134498,3.48641
3,1,Potentiostatic EIS,994.211,3.48642,-0.0130555,100926,0.359555,82.4969,0.0469509,-0.356476,1.45539,0.0277089,0.00996295,1360,0.0134752,3.48642
3,1,Potentiostatic EIS,995.448,3.48644,-0.0128115,100001,0.355561,82.7081,0.0451292,-0.352685,1.60922,0.0279544,0.00993953,1370,0.0136999,3.48644
3,1,Potentiostatic EIS,996.593,3.48646,-0.012453,99084.2,0.353511,82.6259,0.045372,-0.350587,1.47001,0.0282071,0.00997153,1360,0.0137257,3.48646
3,1,Potentiostatic EIS,997.74,3.48644,-0.0124255,98175.7,0.350465,82.6207,0.0450127,-0.347562,1.56854,0.0284478,0.00996999,1355,0.0138018,3.48644
3,1,Potentiostatic EIS,998.897,3.48643,-0.0125715,97275.6,0.347034,82.4659,0.0455017,-0.344038,1.58014,0.0286976,0.00995908,1370,0.0140837,3.48643
3,1,Potentiostatic EIS,1000.06,3.48644,-0.0125391,96383.8,0.344185,82.4563,0.0451856,-0.341206,1.6751,0.0289723,0.00997185,1370,0.014214,3.48644
3,1,Potentiostatic EIS,1001.23,3.48645,-0.0122207,95500.1,0.341282,82.5054,0.0445141,-0.338366,1.48751,0.0292232,0.00997338,1370,0.0143455,3.48645
3,1,Potentiostatic EIS,1002.41,3.4864,-0.0129345,94624.6,0.338549,82.3445,0.0451001,-0.335531,1.30836,0.0294926,0.00998465,1370,0.0144783,3.4864
3,1,Potentiostatic EIS,1003.6,3.48642,-0.0128838,93757.1,0.335674,82.3342,0.0447772,-0.332674,1.49358,0.0297104,0.00997301,1370,0.0146122,3.48642
3,1,Potentiostatic EIS,1004.8,3.48641,-0.0130792,92897.6,0.332585,82.3636,0.044196,-0.329636,1.46676,0.0299873,0.0099733,1355,0.014586,3.48641
3,1,Potentiostatic EIS,1005.99,3.48639,-0.0130188,92045.9,0.329238,82.2628,0.0443253,-0.326241,1.60868,0.0303192,0.00998229,1365,0.0148296,3.48639
3,1,Potentiostatic EIS,1007.21,3.48641,-0.0126918,91202,0.327136,82.3476,0.0435621,-0.324222,1.61456,0.0304991,0.00997737,1370,0.0150216,3.48641
3,1,Potentiostatic EIS,1008.43,3.48641,-0.0129532,90365.9,0.324603,82.2138,0.0439764,-0.32161,1.46831,0.0307979,0.00999712,1360,0.0150499,3.48641
3,1,Potentiostatic EIS,1009.65,3.48641,-0.0130657,89537.4,0.321501,82.2974,0.0430914,-0.3186,1.56928,0.0311302,0.0100084,1370,0.0153009,3.48641
3,1,Potentiostatic EIS,1010.88,3.48638,-0.0131713,88716.5,0.319902,82.1539,0.0436706,-0.316907,1.71772,0.0312419,0.0099944,1365,0.0153861,3.48638
3,1,Potentiostatic EIS,1012.12,3.48638,-0.0134486,87903.1,0.316677,82.0987,0.0435328,-0.313671,1.52053,0.0315184,0.00998115,1360,0.0154716,3.48638
3,1,Potentiostatic EIS,1013.37,3.48641,-0.013225,87097.2,0.313517,82.0481,0.0433727,-0.310503,1.60007,0.0318397,0.00998229,1355,0.0155573,3.48641
3,1,Potentiostatic EIS,1014.64,3.48637,-0.0137468,86298.7,0.310461,81.9668,0.0433862,-0.307415,1.53666,0.0321535,0.00998242,1355,0.0157013,3.48637
3,1,Potentiostatic EIS,1015.9,3.48637,-0.0136422,85507.5,0.307353,81.9047,0.0432816,-0.30429,1.60071,0.0326302,0.010029,1355,0.0158466,3.48637
3,1,Potentiostatic EIS,1017.18,3.48639,-0.0134867,84723.625,0.305394,81.8882,0.0430927,-0.302339,1.41394,0.0326984,0.00998592,1355,0.0159932,3.48639
3,1,Potentiostatic EIS,1018.46,3.48639,-0.0130522,83946.8,0.302933,81.7897,0.0432611,-0.299828,1.60843,0.0330358,0.0100077,1360,0.0162007,3.48639
3,1,Potentiostatic EIS,1019.75,3.48637,-0.0134259,83177.3,0.30011,81.8035,0.0427864,-0.297045,1.55567,0.0332884,0.00999024,1365,0.0164107,3.48637
3,1,Potentiostatic EIS,1021.05,3.48638,-0.0133565,82414.7,0.297452,81.7738,0.0425597,-0.294391,1.62065,0.0335681,0.00998496,1370,0.0166233,3.48638
3,1,Potentiostatic EIS,1022.36,3.48638,-0.0133422,81659.1,0.295194,81.6526,0.0428547,-0.292066,1.64454,0.0337567,0.00996477,1360,0.0166546,3.48638
3,1,Potentiostatic EIS,1023.68,3.48638,-0.0130456,80910.4,0.292,81.7548,0.0418757,-0.288982,1.22865,0.0342027,0.00998725,1355,0.0167469,3.48638
3,1,Potentiostatic EIS,1025,3.48637,-0.0134402,80168.6,0.2897,81.6075,0.0422827,-0.286598,1.30464,0.0345211,0.0100008,1365,0.0170266,3.48637
3,1,Potentiostatic EIS,1026.34,3.48637,-0.0131448,79433.6,0.287415,81.4753,0.0426053,-0.28424,1.60166,0.034734,0.00998309,1365,0.0171842,3.48637
3,1,Potentiostatic EIS,1027.69,3.48637,-0.0132583,78705.4,0.285247,81.417,0.0425706,-0.282052,1.39555,0.0350533,0.00999891,1360,0.0172796,3.48637
3,1,Potentiostatic EIS,1029.04,3.48637,-0.0131091,77983.8,0.282674,81.3525,0.0425015,-0.279461,1.52973,0.0353318,0.00998748,1360,0.0174395,3.48637
3,1,Potentiostatic EIS,1030.4,3.48639,-0.0129759,77268.9,0.279899,81.3192,0.042245,-0.276693,1.32937,0.0356556,0.00997996,1360,0.0176009,3.48639
3,1,Potentiostatic EIS,1031.78,3.48635,-0.0135763,76560.5,0.277333,81.322,0.0418444,-0.274158,1.65478,0.0359927,0.00998199,1365,0.017829,3.48635
3,1,Potentiostatic EIS,1033.17,3.48632,-0.014194,75858.6,0.274806,81.3521,0.0413203,-0.271682,1.50782,0.0363152,0.0099796,1370,0.0180599,3.48632
3,1,Potentiostatic EIS,1034.56,3.48632,-0.0143092,75163,0.272919,81.2466,0.0415335,-0.269741,1.56042,0.0366109,0.00999181,1360,0.018094,3.48632
3,1,Potentiostatic EIS,1035.97,3.48631,-0.0147127,74474,0.270053,81.1727,0.0414415,-0.266855,1.73818,0.0369791,0.00998631,1365,0.0183286,3.48631
3,1,Potentiostatic EIS,1037.37,3.48632,-0.0140472,73791.2,0.267751,81.1832,0.0410397,-0.264587,1.6394,0.0372956,0.00998602,1360,0.0184304,3.48632
3,1,Potentiostatic EIS,1038.79,3.48631,-0.0143345,73114.7,0.26516,81.1338,0.0408684,-0.261991,1.54398,0.0376105,0.00997281,1355,0.0185325,3.48631
3,1,Potentiostatic EIS,1040.22,3.48632,-0.0143981,72444.3,0.26361,81.1526,0.0405443,-0.260473,1.64068,0.0378702,0.00998296,1370,0.0189111,3.48632
3,1,Potentiostatic EIS,1041.66,3.48628,-0.0141151,71780.2,0.261086,81.014,0.04078,-0.257882,1.59385,0.038237,0.00998321,1365,0.0190164,3.48628
3,1,Potentiostatic EIS,1043.12,3.48633,-0.0139532,71122.125,0.259168,80.9398,0.0408117,-0.255935,1.4683,0.0386622,0.0100201,1365,0.0191923,3.48633
3,1,Potentiostatic EIS,1044.58,3.48629,-0.0142242,70470.1,0.25602,80.9487,0.0402768,-0.252832,1.49971,0.0389848,0.00998097,1370,0.0194409,3.48629
3,1,Potentiostatic EIS,1046.05,3.48632,-0.0134089,69824,0.253985,80.9177,0.0400924,-0.250801,1.40862,0.0392587,0.00997109,1360,0.0194776,3.48632
3,1,Potentiostatic EIS,1047.54,3.4863,-0.0137175,69183.9,0.25194,80.9287,0.0397218,-0.248789,1.51428,0.0395683,0.00996884,1365,0.01973,3.4863
3,1,Potentiostatic EIS,1049.03,3.48634,-0.0134356,68549.5,0.249495,80.9657,0.039177,-0.2464,1.79406,0.0399905,0.00997741,1355,0.0197667,3.48634
3,1,Potentiostatic EIS,1050.53,3.48633,-0.0135381,67921.1,0.247538,80.7567,0.0397611,-0.244323,1.52244,0.0403773,0.00999492,1365,0.0200969,3.48633
3,1,Potentiostatic EIS,1052.04,3.48633,-0.01343,67298.4,0.245505,80.7459,0.0394805,-0.242309,1.51244,0.0406098,0.00996994,1360,0.0202085,3.48633
3,1,Potentiostatic EIS,1053.56,3.48631,-0.0137648,66681.4,0.242783,80.7655,0.0389605,-0.239636,1.81272,0.0410719,0.00997159,1360,0.0203955,3.48631
3,1,Potentiostatic EIS,1054.06,3.48632,-0.0140243,66070.1,0.241799,80.76,0.0388258,-0.238662,1.65025,0.0411902,0.00995978,1350,0.0204329,3.48632
3,1,Potentiostatic EIS,1054.57,3.48628,-0.0144884,65464.3,0.239076,80.7088,0.0385991,-0.235939,1.76685,0.0417994,0.0099933,1340,0.0204692,3.48628
3,1,Potentiostatic EIS,1055.07,3.48629,-0.0145849,64864.2,0.237407,80.6231,0.0386801,-0.234234,1.78433,0.0419491,0.00995902,1325,0.0204273,3.48629
3,1,Potentiostatic EIS,1055.57,3.48629,-0.0142827,64269.5,0.235258,80.5772,0.0385159,-0.232083,1.65977,0.0424179,0.00997927,1315,0.0204607,3.48629
3,1,Potentiostatic EIS,1056.07,3.48623,-0.0150905,63680.3,0.232906,80.5594,0.0382024,-0.229751,1.73005,0.0428352,0.00997658,1300,0.0204145,3.48623
3,1,Potentiostatic EIS,1056.58,3.48628,-0.0147522,63096.5,0.231206,80.5208,0.0380774,-0.228049,1.56902,0.0431994,0.0099881,1290,0.0204449,3.48628
3,1,Potentiostatic EIS,1057.08,3.48631,-0.0147452,62518,0.229211,80.3952,0.038244,-0.225998,1.59738,0.0436012,0.00999393,1280,0.0204741,3.48631
3,1,Potentiostatic EIS,1057.58,3.48628,-0.0143715,61944.8,0.226965,80.421,0.0377686,-0.2238,1.53638,0.0440127,0.00998939,1265,0.0204214,3.48628
3,1,Potentiostatic EIS,1058.08,3.48627,-0.0150198,61377,0.225419,80.2045,0.0383511,-0.222133,1.74378,0.0443044,0.0099871,1255,0.0204474,3.48627
3,1,Potentiostatic EIS,1058.58,3.48627,-0.0147617,60814.2,0.222936,80.224,0.0378537,-0.219699,1.68898,0.0447491,0.00997627,1245,0.0204722,3.48627
3,1,Potentiostatic EIS,1059.09,3.48626,-0.0149466,60256.7,0.221709,80.1019,0.0381111,-0.218409,1.49729,0.0450276,0.00998308,1230,0.0204127,3.48626
3,1,Potentiostatic EIS,1059.58,3.48626,-0.0149201,59704.2,0.219748,80.1432,0.0376177,-0.216504,1.64899,0.045442,0.00998576,1220,0.0204341,3.48626
3,1,Potentiostatic EIS,1060.08,3.48628,-0.0149101,59156.9,0.218059,80.056,0.0376558,-0.214783,1.73447,0.0456887,0.00996286,1210,0.0204541,3.48628
3,1,Potentiostatic EIS,1060.59,3.48626,-0.014742,58614.5,0.21603,79.9732,0.0376125,-0.21273,1.69242,0.0462252,0.00998604,1200,0.0204728,3.48626
3,1,Potentiostatic EIS,1061.09,3.48625,-0.0153884,58077.1,0.214284,79.9963,0.0372236,-0.211027,1.64772,0.046563,0.00997774,1185,0.0204039,3.48625
3,1,Potentiostatic EIS,1061.59,3.48625,-0.0147369,57544.7,0.212418,79.8181,0.0375501,-0.209073,1.50614,0.0470471,0.00999365,1175,0.0204189,3.48625
3,1,Potentiostatic EIS,1062.09,3.48618,-0.0160542,57017.1,0.210736,79.8966,0.0369685,-0.207468,1.71568,0.0474521,0.00999994,1165,0.0204325,3.48618
3,1,Potentiostatic EIS,1062.59,3.4862,-0.0157901,56494.4,0.208935,79.7789,0.037075,-0.205619,1.89198,0.047893,0.0100065,1155,0.0204445,3.4862
3,1,Potentiostatic EIS,1063.09,3.48623,-0.0154029,55976.4,0.207101,79.6408,0.0372406,-0.203726,1.76045,0.0482136,0.00998526,1145,0.020455,3.48623
3,1,Potentiostatic EIS,1063.59,3.48625,-0.0154437,55463.2,0.205086,79.6744,0.0367598,-0.201764,1.80686,0.0487394,0.00999573,1135,0.020464,3.48625
3,1,Potentiostatic EIS,1064.09,3.48625,-0.0153226,54954.7,0.203687,79.6039,0.0367557,-0.200343,1.69341,0.0491052,0.010002,1125,0.0204714,3.48625
3,1,Potentiostatic EIS,1064.59,3.48622,-0.0148615,54450.9,0.202047,79.5861,0.0365214,-0.198718,1.69633,0.0494861,0.00999866,1115,0.0204772,3.48622
3,1,Potentiostatic EIS,1065.1,3.48621,-0.0152315,53951.7,0.200075,79.4974,0.0364695,-0.196723,1.78798,0.0498681,0.00997731,1100,0.0203886,3.48621
3,1,Potentiostatic EIS,1065.6,3.48625,-0.0148248,53457.1,0.197862,79.3325,0.0366261,-0.194442,1.64924,0.050349,0.00996224,1090,0.0203902,3.48625
3,1,Potentiostatic EIS,1066.1,3.48625,-0.0152165,52967,0.196328,79.366,0.0362294,-0.192956,1.86827,0.050859,0.00998512,1080,0.02039,3.48625
3,1,Potentiostatic EIS,1066.61,3.48622,-0.0152003,52481.4,0.194384,79.2262,0.0363365,-0.190957,1.69884,0.0513427,0.00998023,1070,0.0203882,3.48622
3,1,Potentiostatic EIS,1067.12,3.48622,-0.0158469,52000.2,0.192764,79.285,0.0358394,-0.189403,1.54524,0.0517589,0.00997726,1060,0.0203845,3.48622
3,1,Potentiostatic EIS,1067.62,3.48623,-0.0152928,51523.5,0.190867,79.1707,0.0358608,-0.187468,1.74331,0.0519777,0.00992086,1055,0.0204761,3.48623
3,1,Potentiostatic EIS,1068.12,3.48621,-0.0157134,51051.1,0.189637,79.0415,0.0360495,-0.186179,1.70454,0.0525214,0.00996004,1045,0.0204697,3.48621
3,1,Potentiostatic EIS,1068.62,3.48621,-0.0162147,50583.1,0.18767,79.0277,0.0357199,-0.184239,1.86475,0.0529204,0.00993162,1035,0.0204614,3.48621
3,1,Potentiostatic EIS,1069.12,3.48622,-0.0159711,50119.3,0.186111,79.1298,0.0350977,-0.182772,1.79075,0.053484,0.00995528,1025,0.0204512,3.48622
3,1,Potentiostatic EIS,1069.38,3.48628,-0.0157447,50000,0.184716,78.7567,0.036015,-0.181171,1.77835,0.0539714,0.00997215,1020,0.0204,3.48628