File: Data/P190_03/EIS_04_P190_03_1/2_EIS_04_P190_03_1 20230912 110238.csv
Step number,Repeats,Step name,Elapsed Time  (s),DC Working Electrode (V),DC Current (A),Frequency (Hz),|Z| (Ohms),Phase (deg),Z' (Ohms),-Z" (Ohms),THD (%),Amplitude (A),Amplitude (V),No of Cycles,Duration of Each Frequency (s),IR Compensated DC Working Electrode (V)
2,1,Potentiostatic EIS,0,3.51595,-0.0197413,1000000,3.43936,88.8065,0.0716358,-3.43861,0.798608,0.0028868,0.00992835,1430,0.00143,3.51595
2,1,Potentiostatic EIS,0.229633,3.51592,-0.0206929,794328,2.74457,88.1685,0.0877166,-2.74317,0.962762,0.00360443,0.0098925,1445,0.00181915,3.51592
2,1,Potentiostatic EIS,0.471469,3.51588,-0.0214383,630957.375,2.18606,87.6216,0.090721,-2.18418,0.847247,0.00452649,0.00989519,1355,0.00214753,3.51588
2,1,Potentiostatic EIS,0.744705,3.51583,-0.0222288,501187.25,1.7415,87.7421,0.0686122,-1.74015,0.814571,0.00573592,0.00998913,1385,0.00276344,3.51583
2,1,Potentiostatic EIS,1.02677,3.51581,-0.0230773,398107,1.39147,87.0379,0.0719057,-1.38961,0.829659,0.00716304,0.00996718,1400,0.00351664,3.51581
2,1,Potentiostatic EIS,1.3307,3.51578,-0.0237113,316228,1.108,86.7174,0.0634442,-1.10618,0.931569,0.00896603,0.00993435,1370,0.00433232,3.51578
2,1,Potentiostatic EIS,1.69666,3.51573,-0.0247397,251189,0.888949,86.0333,0.0614945,-0.88682,0.968276,0.0112232,0.00997686,1340,0.00533464,3.51573
2,1,Potentiostatic EIS,2.11387,3.51567,-0.026002,199526,0.707815,85.8445,0.0512911,-0.705954,1.10731,0.0140141,0.00991941,1355,0.00679109,3.51567
2,1,Potentiostatic EIS,2.57897,3.51563,-0.026973,158489,0.569276,85.0355,0.0492639,-0.56714,1.19114,0.0174796,0.00995073,1360,0.00858102,3.51563
2,1,Potentiostatic EIS,3.11622,3.51555,-0.0289946,125893,0.457907,84.4535,0.0442579,-0.455763,1.35873,0.0218251,0.00999385,1370,0.0108823,3.51555
2,1,Potentiostatic EIS,3.74882,3.51549,-0.0300166,100000,0.365449,83.7119,0.040027,-0.36325,1.52644,0.0272876,0.00997222,1370,0.0137,3.51549
2,1,Potentiostatic EIS,4.42254,3.51542,-0.0319053,79432.8,0.294324,82.836,0.0367052,-0.292026,2.14443,0.0339358,0.00998812,1365,0.0171843,3.51542
2,1,Potentiostatic EIS,4.67264,3.5154,-0.0335204,63095.7,0.235787,81.9506,0.0330163,-0.233464,1.66989,0.0422818,0.00996952,1290,0.0204451,3.5154
2,1,Potentiostatic EIS,4.92787,3.51531,-0.0350304,50118.75,0.190098,80.6488,0.030888,-0.187571,1.82006,0.0523175,0.00994772,1025,0.0204514,3.51531
2,1,Potentiostatic EIS,5.28819,3.51567,-0.0242947,39810.7,0.152423,79.1092,0.0287985,-0.149678,4.05273,0.0646229,0.0098504,815,0.0204719,3.51567
2,1,Potentiostatic EIS,5.50877,3.51576,-0.0211653,31622.8,0.12345,77.1029,0.0275541,-0.120335,5.04452,0.0787714,0.00972397,645,0.0203967,3.51576
2,1,Potentiostatic EIS,5.7375,3.51605,-0.0110672,25118.9,0.0999316,74.7902,0.0262174,-0.0964312,5.56985,0.100579,0.0100511,510,0.0203034,3.51605
2,1,Potentiostatic EIS,5.96789,3.5161,-0.0105668,19952.6,0.0810339,71.905,0.0251686,-0.0770262,6.26712,0.124048,0.0100521,405,0.0202981,3.5161
2,1,Potentiostatic EIS,6.17468,3.51609,-0.0102347,15848.9,0.0658262,68.5994,0.0240191,-0.0612877,6.78398,0.148314,0.00976314,320,0.0201906,3.51609
2,1,Potentiostatic EIS,6.3835,3.51614,-0.00942511,12589.2,0.0545155,64.4456,0.0235162,-0.0491825,7.04086,0.181056,0.00987006,255,0.0202554,3.51614
2,1,Potentiostatic EIS,6.64547,3.51632,-0.00906444,9999.98,0.0456533,59.7959,0.0229674,-0.0394553,3.45522,0.220007,0.010044,307,0.0307001,3.51632
2,1,Potentiostatic EIS,6.85676,3.51631,-0.00968369,7943.27,0.0387911,54.9584,0.0222727,-0.0317596,4.23965,0.273514,0.0106099,244,0.0307178,3.51631
2,1,Potentiostatic EIS,7.06791,3.51632,-0.00973218,6309.57,0.0325317,49.1483,0.0212791,-0.0246071,4.89278,0.322489,0.0104911,193,0.0305885,3.51632
2,1,Potentiostatic EIS,7.27795,3.51634,-0.00855518,5011.87,0.0288286,41.2158,0.0216858,-0.018995,5.02327,0.360012,0.0103786,153,0.0305276,3.51634
2,1,Potentiostatic EIS,7.48781,3.51637,-0.00795874,3981.07,0.0263931,34.2342,0.0218204,-0.0148481,4.85052,0.386794,0.0102087,122,0.0306451,3.51637
2,1,Potentiostatic EIS,7.65519,3.51639,-0.00710348,3162.27,0.0247401,27.7575,0.0218932,-0.0115222,4.61103,0.353491,0.0087454,97,0.0306742,3.51639
2,1,Potentiostatic EIS,7.82233,3.51638,-0.00748573,2511.88,0.0236734,21.7709,0.0219849,-0.00878037,4.05512,0.443371,0.0104961,77,0.0306543,3.51638
2,1,Potentiostatic EIS,7.9894,3.51638,-0.00741859,1995.26,0.0230477,16.5059,0.0220979,-0.00654819,3.49144,0.446984,0.010302,61,0.0305725,3.51638
2,1,Potentiostatic EIS,8.15699,3.51638,-0.00730113,1584.89,0.0227635,11.8846,0.0222756,-0.00468793,3.13255,0.446086,0.0101545,48,0.030286,3.51638
2,1,Potentiostatic EIS,8.27935,3.51639,-0.00669694,1258.92,0.0227004,8.07335,0.0224754,-0.00318806,2.75605,0.394358,0.0089521,38,0.0301845,3.51639
2,1,Potentiostatic EIS,8.40235,3.51641,-0.00637492,999.999,0.0228242,4.86251,0.0227421,-0.0019347,2.45225,0.452248,0.0103222,30,0.03,3.51641
2,1,Potentiostatic EIS,8.52637,3.51643,-0.00622778,794.328,0.0230617,2.2022,0.0230447,-0.000886172,2.28816,0.440905,0.010168,24,0.0302142,3.51643
2,1,Potentiostatic EIS,8.64989,3.51643,-0.00611391,630.956,0.0234247,0.0532544,0.0234246,-2.17724e-05,2.1224,0.430767,0.0100906,19,0.030113,3.51643
2,1,Potentiostatic EIS,8.77305,3.51643,-0.00609349,501.187,0.023855,-1.73781,0.0238441,0.000723426,2.01796,0.421066,0.0100446,15,0.029929,3.51643
2,1,Potentiostatic EIS,8.8526,3.51643,-0.00606771,398.107,0.0243425,-3.0733,0.0243075,0.00130508,1.9903,0.353049,0.00859409,12,0.0301427,3.51643
2,1,Potentiostatic EIS,8.93186,3.51642,-0.00588342,316.228,0.0248571,-4.11352,0.024793,0.00178307,1.84467,0.367269,0.00912923,9,0.0284605,3.51642
2,1,Potentiostatic EIS,9.01302,3.51642,-0.00601847,251.189,0.0254053,-4.86071,0.025314,0.00215269,1.68585,0.372511,0.00946377,8,0.0318486,3.51642
2,1,Potentiostatic EIS,9.10293,3.51642,-0.00592038,199.526,0.0259959,-5.40546,0.0258803,0.0024489,1.53005,0.372191,0.00967546,8,0.0400951,3.51642
2,1,Potentiostatic EIS,9.20351,3.51642,-0.00590764,158.489,0.0265924,-5.73929,0.0264591,0.00265929,1.30419,0.368566,0.00980103,8,0.0504766,3.51642
2,1,Potentiostatic EIS,9.31674,3.51643,-0.00538055,125.892,0.0271391,-5.84966,0.0269978,0.00276597,1.12191,0.362909,0.009849,8,0.0635464,3.51643
2,1,Potentiostatic EIS,9.44712,3.51642,-0.00542531,100,0.0277063,-5.88524,0.0275603,0.0028409,0.957156,0.356772,0.00988484,8,0.08,3.51642
2,1,Potentiostatic EIS,9.59802,3.51644,-0.00550534,79.4327,0.0282472,-5.75305,0.0281049,0.00283153,0.777383,0.350393,0.00989762,8,0.100714,3.51644
2,1,Potentiostatic EIS,9.77808,3.51643,-0.00559683,63.0956,0.028762,-5.55037,0.0286272,0.00278188,0.635697,0.344266,0.00990178,8,0.126792,3.51643
2,1,Potentiostatic EIS,9.99109,3.51643,-0.00535104,50.1186,0.0292462,-5.29779,0.0291213,0.00270037,0.512225,0.33113,0.00968431,8,0.159621,3.51643
2,1,Potentiostatic EIS,10.2502,3.51641,-0.00614569,39.8107,0.0296757,-4.96762,0.0295642,0.0025697,0.411384,0.327657,0.00972345,8,0.200951,3.51641
2,1,Potentiostatic EIS,10.3941,3.51643,-0.0061505,31.6228,0.0300801,-4.63318,0.0299819,0.00242976,0.356929,0.328529,0.00988225,2,0.0632456,3.51643
2,1,Potentiostatic EIS,10.5566,3.51643,-0.00574723,25.1188,0.0304411,-4.22145,0.0303585,0.00224082,0.323754,0.316679,0.00964009,2,0.0796217,3.51643
2,1,Potentiostatic EIS,10.7563,3.51643,-0.0056285,19.9526,0.0307637,-3.83329,0.0306949,0.00205666,0.616679,0.316756,0.00974454,2,0.100238,3.51643
2,1,Potentiostatic EIS,11.0036,3.51642,-0.00602598,15.8489,0.0310348,-3.48775,0.0309774,0.00188801,1.93533,0.316242,0.00981448,2,0.126192,3.51642
2,1,Potentiostatic EIS,11.3104,3.51642,-0.00615785,12.5892,0.031278,-3.12315,0.0312315,0.00170409,0.886932,0.315057,0.00985434,2,0.158866,3.51642
2,1,Potentiostatic EIS,11.692,3.51642,-0.00619295,9.99998,0.0314782,-2.80596,0.0314404,0.00154097,0.25877,0.313905,0.00988114,2,0.2,3.51642
2,1,Potentiostatic EIS,12.1677,3.51641,-0.00665473,7.94328,0.0316499,-2.53243,0.031619,0.00139844,0.215221,0.313212,0.00991314,2,0.251785,3.51641
2,1,Potentiostatic EIS,12.7621,3.51643,-0.00625558,6.30957,0.0318026,-2.317,0.0317766,0.00128572,0.204293,0.311768,0.00991503,2,0.316979,3.51643
2,1,Potentiostatic EIS,13.5048,3.51642,-0.00587579,5.01186,0.0319291,-2.11665,0.0319073,0.00117927,0.207099,0.311014,0.00993039,2,0.399053,3.51642
2,1,Potentiostatic EIS,14.4354,3.51643,-0.00580256,3.98106,0.0320487,-1.96623,0.0320298,0.00109961,0.194188,0.309907,0.0099321,2,0.502378,3.51643
2,1,Potentiostatic EIS,15.6013,3.51643,-0.00603219,3.16227,0.0321576,-1.85455,0.0321407,0.00104069,0.198459,0.309111,0.00994026,2,0.632458,3.51643
2,1,Potentiostatic EIS,17.0643,3.51642,-0.00588589,2.51188,0.0322527,-1.7806,0.0322372,0.00100217,0.204642,0.308273,0.00994264,2,0.796216,3.51642
2,1,Potentiostatic EIS,18.9022,3.51643,-0.00546032,1.99526,0.0323528,-1.72852,0.0323381,0.000975886,0.20591,0.307269,0.00994104,2,1.00238,3.51643
2,1,Potentiostatic EIS,21.2124,3.51643,-0.00565387,1.58489,0.0324721,-1.75351,0.0324569,0.000993639,0.185976,0.306303,0.0099463,2,1.26192,3.51643
2,1,Potentiostatic EIS,24.1169,3.51643,-0.00529987,1.25892,0.0325619,-1.76428,0.0325465,0.00100251,0.195825,0.30549,0.00994734,2,1.58866,3.51643
2,1,Potentiostatic EIS,27.7683,3.51643,-0.00492686,0.999998,0.0326699,-1.82679,0.0326533,0.00104145,0.193373,0.304367,0.00994364,2,2,3.51643
2,1,Potentiostatic EIS,32.3629,3.51642,-0.00548108,0.794327,0.0327829,-1.92437,0.0327644,0.00110086,0.21162,0.303087,0.00993606,2,2.51785,3.51642
2,1,Potentiostatic EIS,38.1412,3.51643,-0.00486561,0.630956,0.032892,-2.06496,0.0328707,0.00118518,0.20649,0.302435,0.0099477,2,3.16979,3.51643
2,1,Potentiostatic EIS,45.4144,3.51644,-0.00443298,0.501186,0.0330065,-2.20783,0.032982,0.00127155,0.225538,0.301363,0.00994693,2,3.99054,3.51644
2,1,Potentiostatic EIS,54.5681,3.51644,-0.0047657,0.398106,0.0331198,-2.39545,0.0330908,0.00138428,0.198397,0.300305,0.00994602,2,5.02379,3.51644
2,1,Potentiostatic EIS,66.0836,3.51644,-0.00369659,0.316227,0.0332623,-2.67601,0.033226,0.00155296,0.19912,0.299055,0.00994725,2,6.32457,3.51644
2,1,Potentiostatic EIS,80.5789,3.51644,-0.00362561,0.251188,0.0334264,-2.9426,0.0333824,0.00171596,0.203758,0.297602,0.00994776,2,7.96216,3.51644
2,1,Potentiostatic EIS,98.8232,3.51643,-0.00389584,0.199526,0.0335825,-3.28286,0.0335274,0.00192311,0.191276,0.296265,0.00994932,2,10.0238,3.51643
2,1,Potentiostatic EIS,121.794,3.51643,-0.00256107,0.158489,0.0337791,-3.65935,0.0337102,0.00215593,0.196797,0.29429,0.00994083,2,12.6192,3.51643
2,1,Potentiostatic EIS,150.708,3.51643,-0.00308308,0.125892,0.0340479,-4.0944,0.033961,0.00243102,0.207361,0.292146,0.00994692,2,15.8866,3.51643
2,1,Potentiostatic EIS,187.1,3.51643,-0.0023649,0.0999997,0.0342048,-4.62143,0.0340936,0.00275594,0.193959,0.291008,0.00995382,2,20.0001,3.51643