File: Data/P190/P190_04/EIS_02_P190_04_1/2_EIS_02_P190_04_1 20230921 132256.csv
Step number,Repeats,Step name,Elapsed Time  (s),DC Working Electrode (V),DC Current (A),Frequency (Hz),|Z| (Ohms),Phase (deg),Z' (Ohms),-Z" (Ohms),THD (%),Amplitude (A),Amplitude (V),No of Cycles,Duration of Each Frequency (s),IR Compensated DC Working Electrode (V)
2,1,Potentiostatic EIS,60.2975,3.46577,-0.0110904,1000000,2.60897,87.8023,0.10005,-2.60705,0.926794,0.00379447,0.00989928,1430,0.00143,3.46577
2,1,Potentiostatic EIS,60.5255,3.46574,-0.0120363,891251,2.3304,87.6055,0.0973648,-2.32837,0.817779,0.00415243,0.00967642,1310,0.00146984,3.46574
2,1,Potentiostatic EIS,60.7743,3.46571,-0.0123344,794328,2.09203,87.6201,0.0868723,-2.09023,1.04864,0.00477353,0.00998638,1445,0.00181915,3.46571
2,1,Potentiostatic EIS,61.0241,3.4657,-0.0125456,707946,1.87048,87.6283,0.0774048,-1.86887,0.934851,0.00532045,0.00995171,1340,0.0018928,3.4657
2,1,Potentiostatic EIS,61.2812,3.46567,-0.0131486,630957.25,1.67323,86.9832,0.0880613,-1.67091,0.937257,0.0059508,0.00995706,1355,0.00214753,3.46567
2,1,Potentiostatic EIS,61.5485,3.46565,-0.0134717,562341.25,1.4933,86.9731,0.0788539,-1.49121,0.789541,0.00665784,0.0099421,1360,0.00241846,3.46565
2,1,Potentiostatic EIS,61.8212,3.46563,-0.013959,501187,1.33915,86.9909,0.0702977,-1.3373,0.956116,0.00743758,0.00996004,1385,0.00276344,3.46563
2,1,Potentiostatic EIS,62.0855,3.46561,-0.0145075,446684,1.19332,86.4978,0.0728953,-1.19109,0.885479,0.00832928,0.00993952,1360,0.00304466,3.46561
2,1,Potentiostatic EIS,62.3608,3.46557,-0.015151,398107,1.07035,86.2028,0.0708839,-1.068,0.978493,0.00931767,0.00997317,1400,0.00351664,3.46557
2,1,Potentiostatic EIS,62.6499,3.46555,-0.0156524,354813,0.953901,86.0626,0.0655006,-0.95165,1.04665,0.0104028,0.00992325,1365,0.00384709,3.46555
2,1,Potentiostatic EIS,63.0832,3.46554,-0.016,316228,0.85071,85.8812,0.0611022,-0.848513,0.997513,0.011584,0.00985435,1370,0.00433232,3.46554
2,1,Potentiostatic EIS,63.3984,3.46551,-0.0166281,281838.25,0.763984,85.4608,0.0604619,-0.761588,1.16853,0.0127341,0.00972906,1370,0.00486094,3.46551
2,1,Potentiostatic EIS,63.7646,3.4655,-0.0166715,251189,0.685056,85.0498,0.0591133,-0.682501,1.04573,0.0145622,0.00997595,1340,0.00533464,3.4655
2,1,Potentiostatic EIS,64.1508,3.46545,-0.0178183,223872,0.612671,85.1094,0.0522322,-0.610441,1.14182,0.0162936,0.00998264,1360,0.0060749,3.46545
2,1,Potentiostatic EIS,64.5588,3.46541,-0.018444,199526,0.546722,84.81,0.0494557,-0.544481,1.17504,0.018165,0.00993127,1355,0.00679109,3.46541
2,1,Potentiostatic EIS,64.9956,3.46539,-0.0188738,177828,0.491173,84.3412,0.0484316,-0.488779,1.19432,0.0203332,0.00998717,1355,0.00761973,3.46539
2,1,Potentiostatic EIS,65.6547,3.46534,-0.0198767,158489,0.439019,83.8027,0.047393,-0.436453,1.36907,0.0226394,0.00993911,1360,0.00858103,3.46534
2,1,Potentiostatic EIS,66.1514,3.4653,-0.020671,141254,0.394438,83.6865,0.0433759,-0.392046,1.45031,0.025326,0.00998954,1355,0.00959267,3.4653
2,1,Potentiostatic EIS,66.6809,3.46526,-0.0214026,125892,0.354469,83.142,0.042327,-0.351932,1.49381,0.0281397,0.00997465,1370,0.0108823,3.46526
2,1,Potentiostatic EIS,67.2518,3.46524,-0.0219154,112202,0.317807,82.6571,0.0406181,-0.315201,1.55043,0.0309217,0.00982719,1360,0.012121,3.46524
2,1,Potentiostatic EIS,67.8132,3.46517,-0.0230571,99999.9,0.284012,82.1781,0.0386524,-0.28137,1.80104,0.0350878,0.00996536,1370,0.0137,3.46517
2,1,Potentiostatic EIS,68.4316,3.46513,-0.0240575,89125.1,0.255107,81.6718,0.0369506,-0.252416,1.73531,0.0391825,0.00999566,1365,0.0153156,3.46513
2,1,Potentiostatic EIS,69.1026,3.4651,-0.0243995,79432.8,0.229003,80.9619,0.0359744,-0.22616,2.1606,0.0431652,0.00988502,1365,0.0171843,3.4651
2,1,Potentiostatic EIS,69.8354,3.46507,-0.0249747,70794.5,0.204908,80.326,0.034433,-0.201994,1.82709,0.0476966,0.00977301,1370,0.0193518,3.46507
2,1,Potentiostatic EIS,70.0814,3.46501,-0.0262652,63095.7,0.183748,79.822,0.0324695,-0.180856,1.84132,0.0527864,0.00969919,1290,0.0204451,3.46501
2,1,Potentiostatic EIS,70.4479,3.46498,-0.0266259,56234.1,0.165637,78.9317,0.0317988,-0.162556,1.78334,0.0601968,0.00997083,1150,0.0204502,3.46498
2,1,Potentiostatic EIS,70.7012,3.46494,-0.0269408,50118.7,0.147676,78.7349,0.0288484,-0.144831,1.80364,0.0674502,0.00996231,1025,0.0204515,3.46494
2,1,Potentiostatic EIS,71.0757,3.46552,-0.0117204,44668.3,0.13311,76.8313,0.030325,-0.12961,4.16209,0.0746884,0.00994179,910,0.0203724,3.46552
2,1,Potentiostatic EIS,71.2965,3.46553,-0.0122541,39810.7,0.119857,76.1435,0.0287046,-0.116369,4.4575,0.0835344,0.0100123,815,0.0204719,3.46553
2,1,Potentiostatic EIS,71.5195,3.46552,-0.012184,35481.3,0.107661,74.9665,0.0279256,-0.103977,4.86254,0.0929427,0.0100064,725,0.0204333,3.46552
2,1,Potentiostatic EIS,71.7435,3.46556,-0.0118014,31622.8,0.0975564,73.5431,0.0276372,-0.0935598,5.35258,0.103162,0.0100642,645,0.0203967,3.46556
2,1,Potentiostatic EIS,71.9671,3.46554,-0.0117359,28183.8,0.0873642,72.2578,0.0266229,-0.0832089,5.67493,0.114613,0.0100132,575,0.0204018,3.46554
2,1,Potentiostatic EIS,72.1917,3.46587,-0.00325675,25118.8,0.0795276,70.5574,0.0264717,-0.0749926,6.06609,0.126985,0.0100989,510,0.0203035,3.46587
2,1,Potentiostatic EIS,72.4197,3.46584,-0.00329706,22387.2,0.0713742,68.854,0.0257479,-0.0665682,6.38063,0.140182,0.0100054,455,0.0203241,3.46584
2,1,Potentiostatic EIS,72.6398,3.46588,-0.00292816,19952.6,0.0650879,66.9002,0.0255362,-0.0598694,6.56032,0.154959,0.0100859,405,0.0202981,3.46588
2,1,Potentiostatic EIS,72.8596,3.4659,-0.00221022,17782.8,0.0590998,64.9331,0.0250392,-0.0535335,6.72682,0.170013,0.0100477,360,0.0202443,3.4659
2,1,Potentiostatic EIS,73.0839,3.46594,-0.001977,15848.9,0.0536509,62.6532,0.0246459,-0.047655,6.86156,0.186721,0.0100177,320,0.0201906,3.46594
2,1,Potentiostatic EIS,73.3041,3.46592,-0.0017308,14125.4,0.0493848,60.0738,0.0246373,-0.0428002,6.97766,0.202885,0.0100194,285,0.0201765,3.46592
2,1,Potentiostatic EIS,73.5229,3.46591,-0.00183613,12589.2,0.0451481,57.6479,0.0241596,-0.03814,6.88977,0.221641,0.0100067,255,0.0202554,3.46591
2,1,Potentiostatic EIS,73.743,3.46596,-0.000778544,11220.2,0.0417561,54.6038,0.0241863,-0.0340382,6.79848,0.240096,0.0100255,225,0.0200532,3.46596
2,1,Potentiostatic EIS,74.0478,3.46617,-0.00064176,9999.98,0.0387574,52.1921,0.0237589,-0.030621,3.22473,0.257722,0.00998863,307,0.0307001,3.46617
2,1,Potentiostatic EIS,74.2608,3.46617,-0.000956366,8912.5,0.0361411,49.4076,0.023516,-0.027444,3.58761,0.245175,0.00886087,273,0.0306311,3.46617
2,1,Potentiostatic EIS,74.4742,3.46618,-0.00100021,7943.27,0.0338596,46.7651,0.0231935,-0.0246685,3.8964,0.280341,0.00949222,244,0.0307178,3.46618
2,1,Potentiostatic EIS,74.6886,3.46618,-0.00104841,7079.45,0.0314681,44.2451,0.0225426,-0.0219562,4.14525,0.31932,0.0100484,217,0.0306521,3.46618
2,1,Potentiostatic EIS,74.9007,3.46618,-0.00118225,6309.57,0.029222,40.3557,0.0222683,-0.0189221,4.32508,0.361951,0.0105769,193,0.0305885,3.46618
2,1,Potentiostatic EIS,75.1124,3.46617,-0.00145795,5623.41,0.0278035,36.1395,0.0224536,-0.0163972,4.37793,0.376949,0.0104805,172,0.0305864,3.46617
2,1,Potentiostatic EIS,75.3232,3.46619,-0.000679581,5011.87,0.0268601,32.4404,0.0226686,-0.0144084,4.35877,0.386325,0.0103767,153,0.0305276,3.46619
2,1,Potentiostatic EIS,75.5343,3.46621,-0.000575963,4466.83,0.0261196,29.0323,0.0228375,-0.0126759,4.25314,0.394693,0.0103092,137,0.0306705,3.46621
2,1,Potentiostatic EIS,75.7455,3.46623,0.000268038,3981.07,0.0254756,25.9522,0.0229066,-0.0111487,4.14559,0.401651,0.0102323,122,0.0306451,3.46623
2,1,Potentiostatic EIS,75.9567,3.46625,0.000713996,3548.13,0.0249386,23.0285,0.0229513,-0.0097557,4.00832,0.406456,0.0101365,108,0.0304386,3.46625
2,1,Potentiostatic EIS,76.1268,3.46626,0.00056561,3162.27,0.0245502,20.3097,0.023024,-0.00852126,3.93048,0.362025,0.00888779,97,0.0306742,3.46626
2,1,Potentiostatic EIS,76.2952,3.46624,0.000568099,2818.38,0.0242384,17.7308,0.023087,-0.00738171,3.64533,0.407334,0.00987313,86,0.030514,3.46624
2,1,Potentiostatic EIS,76.463,3.46624,0.000262697,2511.88,0.0240175,15.4068,0.0231544,-0.00638074,3.5112,0.436089,0.0104737,77,0.0306543,3.46624
2,1,Potentiostatic EIS,76.6309,3.46625,0.000306953,2238.72,0.0238445,13.1522,0.023219,-0.00542553,3.24042,0.434609,0.010363,68,0.0303745,3.46625
2,1,Potentiostatic EIS,76.7983,3.46627,0.000896526,1995.26,0.0237581,11.1317,0.0233111,-0.00458686,3.01283,0.432533,0.0102762,61,0.0305725,3.46627
2,1,Potentiostatic EIS,76.9654,3.46629,0.0013504,1778.28,0.023708,9.26511,0.0233987,-0.00381705,2.86292,0.429725,0.0101879,54,0.0303664,3.46629
2,1,Potentiostatic EIS,77.1331,3.46627,0.000999874,1584.89,0.0237136,7.5362,0.0235088,-0.0031101,2.79716,0.426985,0.0101254,48,0.030286,3.46627
2,1,Potentiostatic EIS,77.2564,3.46627,0.000799161,1412.53,0.0237441,5.93022,0.023617,-0.00245317,2.67922,0.377728,0.00896879,43,0.0304417,3.46627
2,1,Potentiostatic EIS,77.3803,3.46628,0.000941922,1258.92,0.023795,4.50972,0.0237214,-0.00187096,2.55061,0.398224,0.00947576,38,0.0301845,3.46628
2,1,Potentiostatic EIS,77.5033,3.46629,0.00121978,1122.02,0.0239159,3.23324,0.0238778,-0.00134887,2.47865,0.432969,0.0103548,34,0.0303026,3.46629
2,1,Potentiostatic EIS,77.6251,3.4663,0.00145262,999.999,0.0240356,2.04532,0.0240203,-0.000857829,2.33394,0.427744,0.0102811,30,0.03,3.4663
2,1,Potentiostatic EIS,77.7478,3.46629,0.00155312,891.25,0.0241822,0.942058,0.024179,-0.000397587,2.21576,0.422539,0.0102179,27,0.0302945,3.46629
2,1,Potentiostatic EIS,77.8705,3.4663,0.00154414,794.328,0.0243538,-0.00738129,0.0243538,3.13744e-06,2.13991,0.41674,0.0101492,24,0.0302142,3.4663
2,1,Potentiostatic EIS,77.9929,3.4663,0.00171525,707.945,0.0245416,-0.94016,0.0245383,0.000402682,2.10994,0.411416,0.0100968,21,0.0296633,3.4663
2,1,Potentiostatic EIS,78.1151,3.46629,0.00136058,630.956,0.0247504,-1.73873,0.024739,0.000750973,2.074,0.407,0.0100734,19,0.030113,3.46629
2,1,Potentiostatic EIS,78.2384,3.46629,0.00145288,562.34,0.0249659,-2.45524,0.024943,0.00106951,2.03552,0.402778,0.0100557,17,0.0302308,3.46629
2,1,Potentiostatic EIS,78.3601,3.4663,0.00181231,501.185,0.0251955,-3.16577,0.025157,0.00139142,1.9947,0.398297,0.0100353,15,0.029929,3.4663
2,1,Potentiostatic EIS,78.482,3.46629,0.00133156,446.683,0.025446,-3.75862,0.0253913,0.00166807,1.94206,0.394338,0.0100343,13,0.0291034,3.46629
2,1,Potentiostatic EIS,78.5604,3.4663,0.00156884,398.107,0.0257097,-4.27469,0.0256382,0.00191635,1.95002,0.340754,0.00876067,12,0.0301427,3.4663
2,1,Potentiostatic EIS,78.6384,3.46631,0.00184904,354.813,0.025964,-4.80077,0.0258729,0.00217296,1.85623,0.347796,0.00903017,10,0.0281839,3.46631
2,1,Potentiostatic EIS,78.7165,3.4663,0.00185104,316.227,0.0262593,-5.20761,0.0261509,0.00238342,1.77597,0.352476,0.00925576,9,0.0284606,3.4663
2,1,Potentiostatic EIS,78.7958,3.4663,0.00178623,281.838,0.0265459,-5.62505,0.0264181,0.00260198,1.71671,0.354941,0.00942223,8,0.0283851,3.4663
2,1,Potentiostatic EIS,78.8759,3.46631,0.0019081,251.188,0.0268368,-5.96116,0.0266917,0.00278712,1.63064,0.356208,0.00955949,8,0.0318487,3.46631
2,1,Potentiostatic EIS,78.9601,3.46631,0.00189814,223.872,0.0271688,-6.22326,0.0270087,0.00294518,1.51225,0.355738,0.009665,8,0.0357347,3.46631
2,1,Potentiostatic EIS,79.0479,3.46632,0.00184378,199.526,0.0274765,-6.4854,0.0273007,0.00310348,1.42297,0.354505,0.00974056,8,0.0400951,3.46632
2,1,Potentiostatic EIS,79.1409,3.46631,0.00177188,177.828,0.0278102,-6.68707,0.027621,0.0032384,1.34952,0.352624,0.00980656,8,0.0449874,3.46631
2,1,Potentiostatic EIS,79.2393,3.46629,0.00181409,158.489,0.0281288,-6.84173,0.0279285,0.00335091,1.23563,0.350041,0.00984624,8,0.0504767,3.46629
2,1,Potentiostatic EIS,79.3438,3.4663,0.00163827,141.253,0.0284699,-7.00294,0.0282575,0.00347105,1.14641,0.346964,0.00987802,8,0.0566359,3.4663
2,1,Potentiostatic EIS,79.4555,3.46631,0.00191497,125.892,0.0288055,-7.07535,0.0285861,0.0035481,1.07035,0.343662,0.00989934,8,0.0635464,3.46631
2,1,Potentiostatic EIS,79.5762,3.4663,0.00179052,112.201,0.0291394,-7.16762,0.0289117,0.00363579,0.983305,0.340149,0.00991175,8,0.0713003,3.4663
2,1,Potentiostatic EIS,79.7048,3.46631,0.00208299,99.9997,0.0294896,-7.17453,0.0292587,0.00368302,0.88765,0.336348,0.00991879,8,0.0800003,3.46631
2,1,Potentiostatic EIS,79.8435,3.4663,0.00206391,89.1248,0.0298258,-7.19094,0.0295912,0.00373348,0.765346,0.332685,0.00992259,8,0.0897617,3.4663
2,1,Potentiostatic EIS,79.9939,3.46631,0.00180712,79.4325,0.0301775,-7.13713,0.0299436,0.00374938,0.717368,0.328993,0.00992817,8,0.100714,3.46631
2,1,Potentiostatic EIS,80.1566,3.4663,0.00187331,70.7943,0.030516,-7.06827,0.0302841,0.00375506,0.653496,0.325347,0.00992831,8,0.113003,3.4663
2,1,Potentiostatic EIS,80.3341,3.46629,0.00188624,63.0956,0.0308506,-6.97503,0.0306223,0.0037464,0.56874,0.321791,0.00992747,8,0.126792,3.46629
2,1,Potentiostatic EIS,80.5294,3.4663,0.0021487,56.2341,0.031171,-6.90434,0.0309449,0.00374713,0.521958,0.311585,0.00971243,8,0.142263,3.4663
2,1,Potentiostatic EIS,80.7431,3.46631,0.00213153,50.1186,0.0314912,-6.74919,0.0312729,0.00370095,0.470151,0.309109,0.00973421,8,0.159621,3.46631
2,1,Potentiostatic EIS,80.9789,3.46631,0.001799,44.6682,0.0318023,-6.6141,0.0315907,0.00366304,0.410306,0.30677,0.00975601,8,0.179098,3.46631
2,1,Potentiostatic EIS,81.236,3.46629,0.00151363,39.8106,0.0320977,-6.43947,0.0318952,0.00359987,0.367559,0.30431,0.00976765,8,0.200952,3.46629
2,1,Potentiostatic EIS,81.5207,3.4663,0.0020232,35.4812,0.0323883,-6.26501,0.0321949,0.00353445,0.348763,0.302191,0.00978744,8,0.225471,3.4663
2,1,Potentiostatic EIS,81.6631,3.46629,0.00195935,31.6227,0.0326904,-6.08933,0.0325059,0.00346776,0.340711,0.3026,0.00989208,2,0.0632458,3.46629
2,1,Potentiostatic EIS,81.8089,3.4663,0.00174841,28.1838,0.032951,-5.8811,0.0327776,0.00337631,0.303731,0.300775,0.00991083,2,0.0709628,3.4663
2,1,Potentiostatic EIS,81.9711,3.46629,0.00167687,25.1188,0.0332102,-5.67783,0.0330473,0.00328565,0.259069,0.290311,0.00964126,2,0.0796217,3.46629
2,1,Potentiostatic EIS,82.1507,3.4663,0.001349,22.3871,0.0334662,-5.47435,0.0333136,0.00319268,0.274498,0.289652,0.00969355,2,0.0893371,3.4663
2,1,Potentiostatic EIS,82.3499,3.46629,0.00098077,19.9525,0.0336737,-5.29448,0.03353,0.00310723,0.237688,0.289417,0.00974571,2,0.100238,3.46629
2,1,Potentiostatic EIS,82.5725,3.46629,0.00114165,17.7828,0.033907,-5.07179,0.0337742,0.00299751,0.240007,0.288256,0.00977394,2,0.112468,3.46629
2,1,Potentiostatic EIS,82.8198,3.4663,0.00120104,15.8489,0.0341272,-4.8782,0.0340036,0.00290211,0.260882,0.287782,0.00982123,2,0.126192,3.4663
2,1,Potentiostatic EIS,83.095,3.46631,0.00130168,14.1253,0.0343328,-4.68438,0.0342181,0.00280385,0.220202,0.286697,0.00984313,2,0.14159,3.46631
2,1,Potentiostatic EIS,83.4018,3.4663,0.000964448,12.5892,0.034523,-4.49524,0.0344168,0.00270579,0.206376,0.285858,0.00986864,2,0.158866,3.4663
2,1,Potentiostatic EIS,83.7438,3.4663,0.00109708,11.2201,0.0346932,-4.28939,0.034596,0.00259485,0.209055,0.284778,0.00987985,2,0.178251,3.4663
2,1,Potentiostatic EIS,84.1252,3.4663,0.00108155,9.99996,0.0348601,-4.10932,0.0347704,0.00249806,0.211998,0.283744,0.0098913,2,0.200001,3.4663
2,1,Potentiostatic EIS,84.5512,3.46629,0.000526053,8.91248,0.0350393,-3.94153,0.0349565,0.00240855,0.201593,0.282969,0.00991507,2,0.224404,3.46629
2,1,Potentiostatic EIS,85.0267,3.4663,0.000880015,7.94325,0.035169,-3.78876,0.0350921,0.0023239,0.187344,0.281747,0.00990873,2,0.251786,3.4663
2,1,Potentiostatic EIS,85.5574,3.46629,0.000701616,7.07944,0.0353381,-3.61917,0.0352677,0.0022307,0.19084,0.281002,0.00993007,2,0.282508,3.46629
2,1,Potentiostatic EIS,86.1516,3.46631,0.00100494,6.30955,0.035465,-3.44929,0.0354008,0.00213376,0.182623,0.279753,0.00992146,2,0.31698,3.46631
2,1,Potentiostatic EIS,86.8154,3.4663,0.000647512,5.62339,0.035594,-3.33441,0.0355337,0.00207027,0.187601,0.279058,0.00993277,2,0.355657,3.4663
2,1,Potentiostatic EIS,87.5588,3.46629,0.000272042,5.01185,0.0357067,-3.21268,0.0356506,0.00200109,0.196334,0.27821,0.00993395,2,0.399054,3.46629
2,1,Potentiostatic EIS,88.3876,3.4663,0.000393409,4.46682,0.035824,-3.09755,0.0357717,0.00193579,0.184486,0.277586,0.00994425,2,0.447745,3.4663
2,1,Potentiostatic EIS,89.3158,3.4663,0.000531908,3.98106,0.0359222,-2.99416,0.0358732,0.00187637,0.18892,0.276589,0.00993567,2,0.502378,3.4663
2,1,Potentiostatic EIS,90.3554,3.46631,0.000350913,3.54812,0.0360376,-2.89389,0.0359917,0.00181941,0.168847,0.27589,0.00994243,2,0.563679,3.46631
2,1,Potentiostatic EIS,91.5197,3.46631,0.000432179,3.16227,0.0361221,-2.81921,0.0360784,0.00177665,0.193692,0.275264,0.00994311,2,0.632458,3.46631
2,1,Potentiostatic EIS,92.8246,3.4663,0.000365527,2.81837,0.0362275,-2.72525,0.0361865,0.00172249,0.17013,0.274517,0.00994506,2,0.70963,3.4663
2,1,Potentiostatic EIS,94.2872,3.4663,0.000158177,2.51188,0.0363159,-2.6966,0.0362757,0.00170856,0.204749,0.273921,0.00994767,2,0.796217,3.4663
2,1,Potentiostatic EIS,95.9266,3.4663,0.00029255,2.23872,0.0363976,-2.64024,0.036359,0.00167664,0.155403,0.273413,0.00995156,2,0.893369,3.4663
2,1,Potentiostatic EIS,97.7641,3.4663,0.000195796,1.99526,0.0364745,-2.61625,0.0364365,0.00166493,0.183482,0.27266,0.00994515,2,1.00238,3.4663
2,1,Potentiostatic EIS,99.8252,3.4663,1.23266e-05,1.77827,0.0365663,-2.54916,0.0365301,0.00162634,0.175937,0.27223,0.00995444,2,1.12469,3.4663
2,1,Potentiostatic EIS,102.135,3.4663,-6.27836e-05,1.58489,0.0366485,-2.55811,0.036612,0.00163572,0.170579,0.271549,0.00995186,2,1.26192,3.4663
2,1,Potentiostatic EIS,104.724,3.4663,-4.47631e-05,1.41253,0.0367263,-2.53614,0.0366903,0.00162512,0.200569,0.2709,0.00994916,2,1.4159,3.4663
2,1,Potentiostatic EIS,107.628,3.4663,-0.000204548,1.25892,0.0368175,-2.5259,0.0367817,0.00162259,0.168739,0.270219,0.00994878,2,1.58866,3.4663
2,1,Potentiostatic EIS,110.885,3.46631,-6.36672e-05,1.12202,0.0368974,-2.58258,0.0368599,0.00166257,0.178146,0.269797,0.0099548,2,1.78251,3.46631
2,1,Potentiostatic EIS,114.536,3.46631,4.54031e-06,0.999995,0.0369717,-2.58018,0.0369342,0.00166437,0.175849,0.269348,0.00995826,2,2.00001,3.46631
2,1,Potentiostatic EIS,118.632,3.46631,-0.000390817,0.891248,0.0370718,-2.62286,0.0370329,0.00169646,0.200589,0.268506,0.00995399,2,2.24404,3.46631
2,1,Potentiostatic EIS,123.226,3.46631,-0.000116407,0.794324,0.0371779,-2.67277,0.0371375,0.00173367,0.16612,0.267864,0.00995865,2,2.51786,3.46631
2,1,Potentiostatic EIS,128.38,3.4663,-0.000174924,0.707944,0.0372695,-2.69718,0.0372282,0.0017538,0.210824,0.267053,0.00995292,2,2.82508,3.4663
2,1,Potentiostatic EIS,134.159,3.46631,-0.000159372,0.630955,0.0373747,-2.77359,0.0373309,0.00180854,0.199822,0.26635,0.00995477,2,3.1698,3.46631
2,1,Potentiostatic EIS,140.645,3.46631,-4.76566e-05,0.562339,0.0374579,-2.8692,0.037411,0.001875,0.165008,0.265783,0.00995566,2,3.55657,3.46631
2,1,Potentiostatic EIS,147.919,3.4663,-0.000119506,0.501186,0.037553,-2.9455,0.0375033,0.0019297,0.169386,0.265106,0.00995552,2,3.99054,3.4663
2,1,Potentiostatic EIS,156.08,3.4663,-0.000397803,0.446681,0.0376456,-3.03161,0.0375929,0.00199096,0.185814,0.264183,0.00994531,2,4.47747,3.4663
2,1,Potentiostatic EIS,165.234,3.46631,1.09151e-05,0.398106,0.0377466,-3.14311,0.0376899,0.00206965,0.174602,0.26373,0.00995491,2,5.02379,3.46631
2,1,Potentiostatic EIS,175.503,3.4663,-0.000332436,0.354812,0.0378529,-3.2872,0.0377906,0.00217052,0.19512,0.263,0.00995528,2,5.63679,3.4663
2,1,Potentiostatic EIS,187.018,3.4663,-0.000265463,0.316226,0.0379576,-3.38673,0.0378913,0.00224236,0.193878,0.262369,0.00995891,2,6.32458,3.4663
2,1,Potentiostatic EIS,199.939,3.4663,9.053e-05,0.281837,0.0380733,-3.55789,0.0379999,0.00236272,0.189171,0.261454,0.00995441,2,7.09631,3.4663
2,1,Potentiostatic EIS,214.433,3.4663,-0.000185496,0.251188,0.0382074,-3.73361,0.0381263,0.00248798,0.178108,0.260619,0.00995758,2,7.96218,3.4663
2,1,Potentiostatic EIS,230.696,3.4663,-0.000209976,0.223871,0.0383269,-3.91564,0.0382374,0.00261726,0.219727,0.259896,0.009961,2,8.9337,3.4663
2,1,Potentiostatic EIS,248.941,3.46631,0.000380917,0.199525,0.0384316,-4.09628,0.0383334,0.00274527,0.179099,0.259025,0.00995475,2,10.0238,3.46631
2,1,Potentiostatic EIS,269.407,3.46631,-0.000139546,0.177827,0.0385767,-4.28433,0.0384689,0.00288192,0.202988,0.258245,0.00996223,2,11.2469,3.46631
2,1,Potentiostatic EIS,292.377,3.4663,-3.65906e-05,0.158489,0.0387114,-4.54138,0.0385899,0.00306513,0.192231,0.257229,0.0099577,2,12.6192,3.4663
2,1,Potentiostatic EIS,318.142,3.4663,5.64825e-05,0.141253,0.0388451,-4.77692,0.0387102,0.00323488,0.169279,0.256329,0.00995712,2,14.159,3.4663
2,1,Potentiostatic EIS,347.056,3.46629,-0.000299165,0.125892,0.0390041,-5.02475,0.0388542,0.00341621,0.171676,0.255191,0.00995348,2,15.8867,3.46629
2,1,Potentiostatic EIS,379.489,3.4663,0.000525012,0.112201,0.0391408,-5.33456,0.0389713,0.00363897,0.175243,0.254476,0.00996038,2,17.8251,3.4663
2,1,Potentiostatic EIS,415.88,3.4663,0.000315595,0.0999997,0.0393447,-5.65481,0.0391533,0.00387683,0.195583,0.253165,0.00996074,2,20.0001,3.4663
2,1,Potentiostatic EIS,456.709,3.4663,-7.915e-06,0.0891246,0.0395514,-5.98443,0.0393358,0.00412355,0.15995,0.251911,0.00996341,2,22.4405,3.4663
2,1,Potentiostatic EIS,502.509,3.4663,0.00045287,0.0794325,0.0397118,-6.33584,0.0394693,0.00438244,0.171517,0.250889,0.00996325,2,25.1786,3.4663
2,1,Potentiostatic EIS,553.906,3.4663,0.000180071,0.0707942,0.0399176,-6.72344,0.039643,0.00467343,0.154878,0.249591,0.00996304,2,28.2509,3.4663
2,1,Potentiostatic EIS,611.563,3.4663,0.000264843,0.0630955,0.0401297,-7.15984,0.0398168,0.00500168,0.194362,0.248301,0.00996426,2,31.698,3.4663
2,1,Potentiostatic EIS,676.252,3.4663,0.000457936,0.0562339,0.0403524,-7.59516,0.0399983,0.00533347,0.171876,0.24669,0.00995452,2,35.5657,3.4663
2,1,Potentiostatic EIS,748.835,3.4663,-0.000156538,0.0501185,0.0406075,-8.0888,0.0402035,0.00571379,0.16698,0.245271,0.00995981,2,39.9054,3.4663
2,1,Potentiostatic EIS,821.587,3.46631,0.000127877,0.05,0.0405302,-8.14403,0.0401215,0.00574159,0.154659,0.24576,0.00996068,2,40,3.46631