File: Data/P190/P190_02/EIS_08_P190_02_5/2_EIS_08_P190_02_5 20230913 151037.csv
Step number,Repeats,Step name,Elapsed Time  (s),DC Working Electrode (V),DC Current (A),Frequency (Hz),|Z| (Ohms),Phase (deg),Z' (Ohms),-Z" (Ohms),THD (%),Amplitude (A),Amplitude (V),No of Cycles,Duration of Each Frequency (s),IR Compensated DC Working Electrode (V)
2,1,Potentiostatic EIS,0,3.55744,-0.0102361,1000000,3.6449,88.6742,0.0843333,-3.64392,1.40463,0.00272113,0.00991849,1430,0.00143,3.55744
2,1,Potentiostatic EIS,0.229799,3.55737,-0.0111859,794328,2.90676,88.0538,0.0987169,-2.90509,1.30759,0.00341392,0.00992326,1445,0.00181915,3.55737
2,1,Potentiostatic EIS,0.469227,3.55734,-0.0118477,630957.375,2.31296,87.6541,0.0946744,-2.31102,1.42953,0.0042891,0.00992029,1355,0.00214753,3.55734
2,1,Potentiostatic EIS,0.718188,3.55731,-0.0126229,501187.25,1.84408,87.7013,0.0739654,-1.84259,1.26815,0.00527031,0.00972017,1385,0.00276344,3.55731
2,1,Potentiostatic EIS,0.998404,3.55728,-0.0133939,398107,1.47264,86.8881,0.0799435,-1.47047,1.24618,0.00676628,0.00996431,1400,0.00351664,3.55728
2,1,Potentiostatic EIS,1.30261,3.55725,-0.0139039,316228,1.17139,86.5173,0.0711595,-1.16923,1.28769,0.00848419,0.00993839,1370,0.00433232,3.55725
2,1,Potentiostatic EIS,1.63421,3.55722,-0.0146485,251189,0.941329,85.9743,0.066085,-0.939006,1.16909,0.0106155,0.00999269,1340,0.00533464,3.55722
2,1,Potentiostatic EIS,2.04904,3.55713,-0.0161909,199526,0.750179,85.7612,0.0554488,-0.748127,1.58517,0.013244,0.0099354,1355,0.00679109,3.55713
2,1,Potentiostatic EIS,2.50751,3.55712,-0.0163548,158489,0.6041,84.8458,0.0542704,-0.601657,1.11031,0.0164732,0.00995154,1360,0.00858102,3.55712
2,1,Potentiostatic EIS,3.04376,3.55703,-0.0180715,125893,0.484912,84.2879,0.0482632,-0.482504,1.35746,0.0205905,0.00998458,1370,0.0108823,3.55703
2,1,Potentiostatic EIS,3.88143,3.55696,-0.0192862,100000,0.387267,83.44,0.044243,-0.384732,1.70894,0.0257525,0.00997308,1370,0.0137,3.55696
2,1,Potentiostatic EIS,4.55064,3.55691,-0.0199474,79432.8,0.311345,82.4897,0.0406943,-0.308674,1.98383,0.0320883,0.00999052,1365,0.0171843,3.55691
2,1,Potentiostatic EIS,4.79428,3.55681,-0.0220184,63095.7,0.250042,81.5744,0.0366372,-0.247343,1.80015,0.0399442,0.00998774,1290,0.0204451,3.55681
2,1,Potentiostatic EIS,5.04809,3.55676,-0.0233909,50118.75,0.200202,80.1315,0.0343121,-0.19724,1.99535,0.0500407,0.0100185,1025,0.0204514,3.55676
2,1,Potentiostatic EIS,5.30662,3.55674,-0.0239187,39810.7,0.162245,78.4765,0.0324117,-0.158975,1.87147,0.0613824,0.00995911,815,0.0204719,3.55674
2,1,Potentiostatic EIS,5.68752,3.55721,-0.0126088,31622.8,0.13133,76.3391,0.0310169,-0.127615,4.53281,0.0761335,0.00999867,645,0.0203967,3.55721
2,1,Potentiostatic EIS,5.89208,3.55761,-0.00464062,25118.9,0.106614,74.0512,0.0292952,-0.10251,5.32469,0.0916431,0.009771,510,0.0203034,3.55761
2,1,Potentiostatic EIS,6.09267,3.55758,-0.00483533,19952.6,0.0864533,71.1145,0.027983,-0.0817993,6.12116,0.113728,0.00983224,405,0.0202981,3.55758
2,1,Potentiostatic EIS,6.2977,3.55759,-0.00394295,15848.9,0.0703644,67.512,0.0269136,-0.0650139,6.69072,0.139543,0.00981908,320,0.0201906,3.55759
2,1,Potentiostatic EIS,6.51488,3.55763,-0.00376472,12589.2,0.0583979,63.345,0.0261983,-0.0521916,6.92798,0.170478,0.00995562,255,0.0202554,3.55763
2,1,Potentiostatic EIS,6.77837,3.5576,-0.00358735,9999.98,0.0490973,58.5412,0.0256232,-0.0418808,3.3877,0.203374,0.00998512,307,0.0307001,3.5576
2,1,Potentiostatic EIS,6.99119,3.5576,-0.00376981,7943.27,0.0418834,53.6053,0.0248513,-0.033714,4.17246,0.252278,0.0105663,244,0.0307178,3.5576
2,1,Potentiostatic EIS,7.20323,3.55762,-0.00338209,6309.57,0.0353487,47.4062,0.0239239,-0.0260227,4.82241,0.296798,0.0104914,193,0.0305885,3.55762
2,1,Potentiostatic EIS,7.41514,3.55764,-0.00293282,5011.87,0.0315088,39.6137,0.0242731,-0.0200902,4.94363,0.326854,0.0102988,153,0.0305276,3.55764
2,1,Potentiostatic EIS,7.62611,3.55767,-0.00244037,3981.07,0.0290393,32.6534,0.0244497,-0.0156683,4.76077,0.35034,0.0101736,122,0.0306451,3.55767
2,1,Potentiostatic EIS,7.79398,3.55767,-0.00227863,3162.27,0.0273522,26.2264,0.0245365,-0.0120875,4.44135,0.34889,0.00954292,97,0.0306742,3.55767
2,1,Potentiostatic EIS,7.96303,3.55768,-0.00223492,2511.88,0.0263055,20.4529,0.0246472,-0.00919214,4.00666,0.397073,0.0104452,77,0.0306543,3.55768
2,1,Potentiostatic EIS,8.13257,3.55769,-0.00187907,1995.26,0.025706,15.3169,0.0247929,-0.00679043,3.35709,0.398798,0.0102515,61,0.0305725,3.55769
2,1,Potentiostatic EIS,8.30069,3.55771,-0.00124818,1584.89,0.025445,10.944,0.0249823,-0.00483074,3.06909,0.397236,0.0101077,48,0.030286,3.55771
2,1,Potentiostatic EIS,8.42368,3.5577,-0.00149445,1258.92,0.0254125,7.22955,0.0252105,-0.00319803,2.68351,0.382154,0.00971148,38,0.0301845,3.5577
2,1,Potentiostatic EIS,8.54698,3.55769,-0.00142867,999.999,0.0255709,4.18523,0.0255027,-0.00186619,2.47704,0.40124,0.01026,30,0.03,3.55769
2,1,Potentiostatic EIS,8.67274,3.55771,-0.00129134,794.328,0.0258551,1.60631,0.0258449,-0.000724763,2.20812,0.391937,0.0101336,24,0.0302142,3.55771
2,1,Potentiostatic EIS,8.79611,3.55772,-0.00124166,630.956,0.026209,-0.529533,0.0262079,0.000242223,2.08419,0.384503,0.0100775,19,0.030113,3.55772
2,1,Potentiostatic EIS,8.92056,3.55773,-0.000938297,501.187,0.0266624,-2.30277,0.0266409,0.0010713,2.00409,0.376942,0.0100502,15,0.029929,3.55773
2,1,Potentiostatic EIS,9.00046,3.55772,-0.00098253,398.107,0.0271378,-3.81962,0.0270775,0.0018078,1.95996,0.324537,0.0088072,12,0.0301427,3.55772
2,1,Potentiostatic EIS,9.08252,3.55773,-0.000671951,316.228,0.027707,-5.13447,0.0275959,0.0024796,1.78896,0.335604,0.0092986,9,0.0284605,3.55773
2,1,Potentiostatic EIS,9.16424,3.55772,-0.000909727,251.189,0.0283594,-6.20866,0.0281931,0.00306706,1.63148,0.338828,0.00960897,8,0.0318486,3.55772
2,1,Potentiostatic EIS,9.2539,3.55773,-0.000562467,199.526,0.0290703,-7.13688,0.0288451,0.00361171,1.44305,0.336754,0.00978955,8,0.0400951,3.55773
2,1,Potentiostatic EIS,9.35307,3.55773,-0.000373774,158.489,0.029812,-7.88609,0.02953,0.00409033,1.22342,0.331685,0.00988818,8,0.0504766,3.55773
2,1,Potentiostatic EIS,9.46714,3.55772,-0.000358505,125.892,0.030637,-8.53104,0.0302981,0.00454486,1.06431,0.324399,0.00993862,8,0.0635464,3.55772
2,1,Potentiostatic EIS,9.59696,3.55773,-0.000438276,100,0.0315428,-9.01019,0.0311536,0.00493992,0.861438,0.315749,0.00995962,8,0.08,3.55773
2,1,Potentiostatic EIS,9.7482,3.55773,-0.000478556,79.4327,0.0324871,-9.33299,0.0320571,0.0052685,0.695997,0.306678,0.00996309,8,0.100714,3.55773
2,1,Potentiostatic EIS,9.92638,3.55771,-0.000813151,63.0956,0.0334607,-9.43419,0.0330082,0.00548471,0.591319,0.297569,0.0099569,8,0.126792,3.55771
2,1,Potentiostatic EIS,10.141,3.55773,-0.000171704,50.1186,0.0344731,-9.51136,0.0339992,0.00569644,0.483058,0.28255,0.00974036,8,0.159621,3.55773
2,1,Potentiostatic EIS,10.4001,3.55771,-0.00106487,39.8107,0.035497,-9.33765,0.0350266,0.00575947,0.370301,0.275515,0.00977993,8,0.200951,3.55771
2,1,Potentiostatic EIS,10.5433,3.55773,-0.00215784,31.6228,0.0364655,-9.17706,0.0359987,0.00581573,0.323102,0.271632,0.00990531,2,0.0632456,3.55773
2,1,Potentiostatic EIS,10.7051,3.55773,-0.00114604,25.1188,0.0374782,-8.71939,0.0370451,0.00568153,0.270862,0.257819,0.0096625,2,0.0796217,3.55773
2,1,Potentiostatic EIS,10.9051,3.55772,-0.00132225,19.9526,0.0384316,-8.3048,0.0380286,0.00555102,0.263789,0.254227,0.00977036,2,0.100238,3.55772
2,1,Potentiostatic EIS,11.1523,3.55773,-0.00110092,15.8489,0.0393465,-7.79136,0.0389832,0.00533405,0.225461,0.249936,0.00983407,2,0.126192,3.55773
2,1,Potentiostatic EIS,11.459,3.55773,-0.00111161,12.5892,0.0401516,-7.22705,0.0398326,0.00505113,0.229827,0.245946,0.00987512,2,0.158866,3.55773
2,1,Potentiostatic EIS,11.8405,3.55772,-0.00132919,9.99998,0.0409016,-6.64643,0.0406267,0.00473404,0.222413,0.242026,0.00989921,2,0.2,3.55772
2,1,Potentiostatic EIS,12.3158,3.55773,-0.00153627,7.94328,0.0415971,-6.0095,0.0413685,0.00435494,0.194215,0.238675,0.00992818,2,0.251785,3.55773
2,1,Potentiostatic EIS,12.909,3.55773,-0.00133399,6.30957,0.0421706,-5.43498,0.041981,0.00399423,0.205838,0.235537,0.00993274,2,0.316979,3.55773
2,1,Potentiostatic EIS,13.6499,3.55773,-0.00122652,5.01186,0.0426671,-4.85609,0.042514,0.00361191,0.183793,0.233195,0.00994976,2,0.399053,3.55773
2,1,Potentiostatic EIS,14.5777,3.55773,-0.00144565,3.98106,0.0430954,-4.36332,0.0429705,0.00327873,0.184015,0.23096,0.00995333,2,0.502378,3.55773
2,1,Potentiostatic EIS,15.7428,3.55772,-0.00153127,3.16227,0.0434611,-3.93477,0.0433587,0.00298233,0.180981,0.2291,0.00995693,2,0.632458,3.55772
2,1,Potentiostatic EIS,17.2058,3.55773,-0.00155505,2.51188,0.0437836,-3.54116,0.0437,0.00270432,0.171497,0.227573,0.009964,2,0.796216,3.55773
2,1,Potentiostatic EIS,19.0447,3.55773,-0.00159208,1.99526,0.0440718,-3.21867,0.0440023,0.0024745,0.185827,0.226101,0.00996467,2,1.00238,3.55773
2,1,Potentiostatic EIS,21.3549,3.55772,-0.00184133,1.58489,0.044341,-2.94375,0.0442824,0.00227715,0.194934,0.224561,0.00995726,2,1.26192,3.55772
2,1,Potentiostatic EIS,24.259,3.55772,-0.00173296,1.25892,0.0445957,-2.75925,0.044544,0.00214681,0.175658,0.223484,0.00996644,2,1.58866,3.55772
2,1,Potentiostatic EIS,27.911,3.55773,-0.00168056,0.999998,0.044802,-2.58594,0.0447564,0.00202137,0.176528,0.222408,0.00996433,2,2,3.55773
2,1,Potentiostatic EIS,32.5058,3.55773,-0.00181784,0.794327,0.0450151,-2.47514,0.0449731,0.00194402,0.158112,0.221306,0.00996214,2,2.51785,3.55773
2,1,Potentiostatic EIS,38.2841,3.55771,-0.00181739,0.630956,0.0451844,-2.41669,0.0451442,0.00190527,0.152953,0.220472,0.0099619,2,3.16979,3.55771
2,1,Potentiostatic EIS,45.5573,3.55772,-0.00169489,0.501186,0.0453777,-2.4193,0.0453372,0.00191549,0.186057,0.219693,0.00996916,2,3.99054,3.55772
2,1,Potentiostatic EIS,54.7119,3.55772,-0.0018095,0.398106,0.0455708,-2.42563,0.0455299,0.00192868,0.20046,0.21859,0.00996133,2,5.02379,3.55772
2,1,Potentiostatic EIS,66.228,3.55772,-0.00149633,0.316227,0.0457551,-2.51768,0.045711,0.00200992,0.167692,0.217865,0.00996843,2,6.32457,3.55772
2,1,Potentiostatic EIS,80.7226,3.55772,-0.00167295,0.251188,0.0459411,-2.6282,0.0458928,0.00210662,0.191905,0.216997,0.00996908,2,7.96216,3.55772
2,1,Potentiostatic EIS,98.9662,3.55772,-0.00177594,0.199526,0.0461389,-2.77724,0.0460847,0.00223556,0.177706,0.216018,0.0099668,2,10.0238,3.55772
2,1,Potentiostatic EIS,121.937,3.55773,-0.00101491,0.158489,0.0463861,-2.97544,0.0463235,0.0024078,0.164473,0.214812,0.00996429,2,12.6192,3.55773
2,1,Potentiostatic EIS,150.85,3.55772,-0.001555,0.125892,0.0466302,-3.24575,0.0465554,0.00264014,0.160833,0.213842,0.00997148,2,15.8866,3.55772
2,1,Potentiostatic EIS,187.241,3.55774,-0.00121062,0.0999997,0.0468807,-3.58475,0.046789,0.00293121,0.182712,0.21254,0.00996401,2,20.0001,3.55774