File: Data/P190/P190_04/EIS_02_P190_04_5/2_EIS_02_P190_04_5 20230921 155022.csv
Step number,Repeats,Step name,Elapsed Time  (s),DC Working Electrode (V),DC Current (A),Frequency (Hz),|Z| (Ohms),Phase (deg),Z' (Ohms),-Z" (Ohms),THD (%),Amplitude (A),Amplitude (V),No of Cycles,Duration of Each Frequency (s),IR Compensated DC Working Electrode (V)
2,1,Potentiostatic EIS,60.299,3.45867,-0.00979848,1000000,3.34702,88.4735,0.0891629,-3.34583,1.2567,0.00296338,0.00991851,1430,0.00143,3.45867
2,1,Potentiostatic EIS,60.525,3.45865,-0.0104821,891251,2.98089,88.0502,0.101424,-2.97916,1.15613,0.00330587,0.00985431,1310,0.00146984,3.45865
2,1,Potentiostatic EIS,60.7577,3.45861,-0.010603,794328,2.68217,87.9982,0.093691,-2.68053,1.45294,0.00368817,0.00989239,1445,0.00181915,3.45861
2,1,Potentiostatic EIS,60.9914,3.45858,-0.0110323,707946,2.39448,88.0225,0.0826264,-2.39305,1.10526,0.00414195,0.00991793,1340,0.0018928,3.45858
2,1,Potentiostatic EIS,61.2306,3.45858,-0.0116278,630957.25,2.13859,87.5748,0.0904941,-2.13667,1.2803,0.00459276,0.00982205,1355,0.00214753,3.45858
2,1,Potentiostatic EIS,61.4726,3.45854,-0.012349,562341.25,1.90365,87.3837,0.0868949,-1.90166,1.27784,0.00509278,0.00969436,1360,0.00241846,3.45854
2,1,Potentiostatic EIS,61.7406,3.45854,-0.0122593,501187,1.70839,87.5947,0.0716976,-1.70689,1.31911,0.00582045,0.00994367,1385,0.00276344,3.45854
2,1,Potentiostatic EIS,62.0199,3.45852,-0.0125606,446684,1.52367,86.9968,0.0798277,-1.52158,1.27323,0.00653519,0.00995751,1360,0.00304466,3.45852
2,1,Potentiostatic EIS,62.2967,3.45848,-0.0132576,398107,1.36197,86.6996,0.0784111,-1.35971,1.26391,0.00730675,0.00995163,1400,0.00351664,3.45848
2,1,Potentiostatic EIS,62.5822,3.45849,-0.0132731,354813,1.21577,86.5286,0.0736151,-1.21354,1.26872,0.00816921,0.00993186,1365,0.00384709,3.45849
2,1,Potentiostatic EIS,62.8835,3.45845,-0.0140062,316228,1.08556,86.4153,0.0678729,-1.08344,1.42995,0.00916304,0.00994708,1370,0.00433232,3.45845
2,1,Potentiostatic EIS,63.1988,3.45843,-0.0142169,281838.25,0.974627,85.8223,0.0710011,-0.972037,1.36116,0.0102127,0.00995356,1370,0.00486094,3.45843
2,1,Potentiostatic EIS,63.6844,3.45841,-0.0147662,251189,0.871001,85.5281,0.0679116,-0.868349,1.24997,0.0114196,0.00994644,1340,0.00533464,3.45841
2,1,Potentiostatic EIS,64.0349,3.45839,-0.0149149,223872,0.779989,85.6888,0.058635,-0.777782,1.48685,0.0126506,0.00986739,1360,0.0060749,3.45839
2,1,Potentiostatic EIS,64.4065,3.45834,-0.0155704,199526,0.694177,85.4353,0.055246,-0.691975,1.29155,0.013932,0.00967164,1355,0.00679109,3.45834
2,1,Potentiostatic EIS,64.8387,3.45835,-0.0159032,177828,0.62439,84.8195,0.0563788,-0.62184,1.454,0.0159641,0.00996781,1355,0.00761973,3.45835
2,1,Potentiostatic EIS,65.2998,3.45827,-0.017539,158489,0.559147,84.4548,0.0540305,-0.556531,1.54946,0.0177999,0.0099528,1360,0.00858103,3.45827
2,1,Potentiostatic EIS,65.7906,3.45824,-0.0175304,141254,0.500559,84.4069,0.0487865,-0.498176,1.51622,0.0199058,0.00996414,1355,0.00959267,3.45824
2,1,Potentiostatic EIS,66.5525,3.45821,-0.0183089,125892,0.448521,83.8964,0.0476894,-0.445979,1.54729,0.0222271,0.00996937,1370,0.0108823,3.45821
2,1,Potentiostatic EIS,67.1262,3.45817,-0.0190592,112202,0.401977,83.2716,0.0470968,-0.399209,1.6709,0.024869,0.00999688,1360,0.012121,3.45817
2,1,Potentiostatic EIS,67.6901,3.45814,-0.0199178,99999.9,0.359546,82.8433,0.0447937,-0.356745,1.69385,0.0277296,0.00997016,1370,0.0137,3.45814
2,1,Potentiostatic EIS,68.302,3.45812,-0.0200155,89125.1,0.323938,82.3954,0.0428687,-0.321089,1.8443,0.0309382,0.0100221,1365,0.0153156,3.45812
2,1,Potentiostatic EIS,68.9654,3.45809,-0.0204285,79432.8,0.288643,81.7092,0.0416217,-0.285626,2.42541,0.0346956,0.0100145,1365,0.0171843,3.45809
2,1,Potentiostatic EIS,69.6915,3.45803,-0.0214383,70794.5,0.259227,81.3686,0.0389042,-0.256291,1.57713,0.0384968,0.00997947,1370,0.0193518,3.45803
2,1,Potentiostatic EIS,69.9365,3.45799,-0.0219625,63095.7,0.23293,80.8124,0.0371912,-0.229942,1.85132,0.0428114,0.00997214,1290,0.0204451,3.45799
2,1,Potentiostatic EIS,70.1878,3.45799,-0.0228593,56234.1,0.209041,79.9556,0.036459,-0.205837,2.04036,0.0477174,0.00997488,1150,0.0204502,3.45799
2,1,Potentiostatic EIS,70.4381,3.45799,-0.0233745,50118.7,0.187501,79.5836,0.0339002,-0.184411,1.92846,0.0525891,0.00986194,1025,0.0204515,3.45799
2,1,Potentiostatic EIS,70.6905,3.45797,-0.0233263,44668.3,0.168145,77.9374,0.0351392,-0.164433,2.14139,0.0587391,0.00987655,910,0.0203724,3.45797
2,1,Potentiostatic EIS,71.0338,3.45795,-0.0232103,39810.7,0.151481,77.2968,0.0333109,-0.147773,2.13874,0.0651195,0.00986416,815,0.0204719,3.45795
2,1,Potentiostatic EIS,71.2725,3.45795,-0.0231134,35481.3,0.136041,76.3421,0.0321227,-0.132194,1.95825,0.0720097,0.00979636,725,0.0204333,3.45795
2,1,Potentiostatic EIS,71.623,3.45833,-0.0126742,31622.8,0.123259,74.9296,0.032048,-0.119019,4.03823,0.0799598,0.00985598,645,0.0203967,3.45833
2,1,Potentiostatic EIS,71.8448,3.45844,-0.00983957,28183.8,0.109943,73.8184,0.0306394,-0.105588,5.08214,0.0905759,0.00995815,575,0.0204018,3.45844
2,1,Potentiostatic EIS,72.0636,3.45879,-0.000813472,25118.8,0.0999949,72.358,0.0303053,-0.095292,5.59334,0.100655,0.010065,510,0.0203035,3.45879
2,1,Potentiostatic EIS,72.2814,3.45879,-0.000488133,22387.2,0.0896767,70.9686,0.0292424,-0.0847749,5.9086,0.111191,0.00997129,455,0.0203241,3.45879
2,1,Potentiostatic EIS,72.4835,3.45881,-0.000293883,19952.6,0.081661,69.1316,0.0290896,-0.0763041,6.2498,0.119466,0.00975573,405,0.0202981,3.45881
2,1,Potentiostatic EIS,72.6904,3.4588,1.01266e-05,17782.8,0.0738971,67.3266,0.0284857,-0.0681861,6.46293,0.131918,0.00974842,360,0.0202443,3.4588
2,1,Potentiostatic EIS,72.8921,3.45886,-0.000333667,15848.9,0.0668117,65.4415,0.0277684,-0.0607677,6.49866,0.146072,0.00976025,320,0.0201906,3.45886
2,1,Potentiostatic EIS,73.0941,3.45889,0.000129119,14125.4,0.0612883,63.2181,0.0276162,-0.0547138,6.70147,0.160747,0.00985117,285,0.0201765,3.45889
2,1,Potentiostatic EIS,73.2966,3.45883,1.51683e-05,12589.2,0.0558865,60.9725,0.0271178,-0.0488665,6.85673,0.177249,0.00990593,255,0.0202554,3.45883
2,1,Potentiostatic EIS,73.4972,3.45885,-8.30522e-05,11220.2,0.0515002,58.1624,0.027167,-0.0437518,6.76637,0.191905,0.00988284,225,0.0200532,3.45885
2,1,Potentiostatic EIS,73.7571,3.45904,-0.000265101,9999.98,0.0473943,56.0434,0.0264728,-0.0393117,3.31947,0.211223,0.0100108,307,0.0307001,3.45904
2,1,Potentiostatic EIS,73.9685,3.45905,-0.000204642,8912.5,0.0439405,53.4798,0.0261492,-0.0353127,3.67136,0.239542,0.0105256,273,0.0306311,3.45905
2,1,Potentiostatic EIS,74.1796,3.45903,-0.00070642,7943.27,0.0408502,51.0584,0.0256755,-0.0317727,4.0286,0.258848,0.010574,244,0.0307178,3.45903
2,1,Potentiostatic EIS,74.3897,3.45906,-0.000500588,7079.45,0.0376571,48.5829,0.0249115,-0.0282395,4.36795,0.279026,0.0105073,217,0.0306521,3.45906
2,1,Potentiostatic EIS,74.6024,3.45908,0.000421878,6309.57,0.0347958,44.9102,0.0246428,-0.0245657,4.63376,0.301596,0.0104943,193,0.0305885,3.45908
2,1,Potentiostatic EIS,74.814,3.45908,0.000200919,5623.41,0.0328397,40.913,0.0248171,-0.0215071,4.7272,0.315849,0.0103724,172,0.0305864,3.45908
2,1,Potentiostatic EIS,75.0264,3.45909,0.000360721,5011.87,0.0313897,37.3357,0.0249578,-0.0190373,4.71387,0.328432,0.0103094,153,0.0305276,3.45909
2,1,Potentiostatic EIS,75.2358,3.4591,0.000482333,4466.83,0.0301953,33.8727,0.0250705,-0.0168293,4.63771,0.338632,0.0102251,137,0.0306705,3.4591
2,1,Potentiostatic EIS,75.4484,3.45911,0.000886928,3981.07,0.0291631,30.7069,0.0250742,-0.014892,4.53372,0.34824,0.0101558,122,0.0306451,3.45911
2,1,Potentiostatic EIS,75.6146,3.45914,0.00136219,3548.13,0.0283009,27.6553,0.0250677,-0.0131359,4.45112,0.312614,0.00884728,108,0.0304386,3.45914
2,1,Potentiostatic EIS,75.7814,3.45913,0.00140845,3162.27,0.0276422,24.7532,0.0251024,-0.0115741,4.24485,0.352097,0.00973272,97,0.0306742,3.45913
2,1,Potentiostatic EIS,75.9485,3.45914,0.00149033,2818.38,0.0270848,21.9879,0.0251148,-0.0101408,3.99248,0.388615,0.0105256,86,0.030514,3.45914
2,1,Potentiostatic EIS,76.1162,3.45913,0.00113058,2511.88,0.0266534,19.3639,0.0251457,-0.00883738,3.76336,0.390554,0.0104096,77,0.0306543,3.45913
2,1,Potentiostatic EIS,76.2834,3.45912,0.0011047,2238.72,0.0263215,16.9098,0.0251835,-0.00765602,3.47152,0.391909,0.0103157,68,0.0303745,3.45912
2,1,Potentiostatic EIS,76.4505,3.45914,0.00143746,1995.26,0.026089,14.6462,0.0252413,-0.0065966,3.28392,0.392264,0.0102338,61,0.0305725,3.45914
2,1,Potentiostatic EIS,76.6183,3.45914,0.00152432,1778.28,0.0259197,12.5453,0.0253008,-0.00563003,3.15495,0.391931,0.0101587,54,0.0303664,3.45914
2,1,Potentiostatic EIS,76.742,3.45915,0.00172814,1584.89,0.0258324,10.5996,0.0253917,-0.00475172,3.03241,0.329044,0.00850001,48,0.030286,3.45915
2,1,Potentiostatic EIS,76.8654,3.45914,0.00148881,1412.53,0.0257815,8.76525,0.0254804,-0.00392874,2.79523,0.363647,0.00937534,43,0.0304417,3.45914
2,1,Potentiostatic EIS,76.9886,3.45914,0.00165739,1258.92,0.0257888,7.16533,0.0255874,-0.00321671,2.72589,0.382379,0.00986109,38,0.0301845,3.45914
2,1,Potentiostatic EIS,77.1118,3.45915,0.00168026,1122.02,0.0258343,5.68622,0.0257071,-0.00255967,2.50603,0.400425,0.0103447,34,0.0303026,3.45915
2,1,Potentiostatic EIS,77.2346,3.45916,0.00157619,999.999,0.0258967,4.35621,0.0258219,-0.00196703,2.40617,0.396,0.0102551,30,0.03,3.45916
2,1,Potentiostatic EIS,77.3582,3.45917,0.00178505,891.25,0.0260188,3.09679,0.0259808,-0.00140561,2.27571,0.391544,0.0101875,27,0.0302945,3.45917
2,1,Potentiostatic EIS,77.4814,3.45916,0.00184703,794.328,0.0261468,1.98648,0.0261311,-0.000906344,2.22913,0.387597,0.0101344,24,0.0302142,3.45916
2,1,Potentiostatic EIS,77.6046,3.45917,0.00220549,707.945,0.0263038,0.97388,0.0263,-0.000447076,2.11162,0.384012,0.010101,21,0.0296633,3.45917
2,1,Potentiostatic EIS,77.7287,3.45919,0.00232082,630.956,0.0264859,0.0123216,0.0264859,-5.69583e-06,2.04579,0.380119,0.0100678,19,0.030113,3.45919
2,1,Potentiostatic EIS,77.8528,3.45919,0.00226135,562.34,0.026686,-0.791016,0.0266835,0.000368411,2.00582,0.377182,0.0100655,17,0.0302308,3.45919
2,1,Potentiostatic EIS,77.9765,3.45918,0.00221555,501.185,0.0269045,-1.56239,0.0268945,0.00073356,1.95692,0.373561,0.0100504,15,0.029929,3.45918
2,1,Potentiostatic EIS,78.0989,3.45918,0.00197633,446.683,0.0271177,-2.23328,0.0270971,0.00105673,1.89063,0.369559,0.0100216,13,0.0291034,3.45918
2,1,Potentiostatic EIS,78.179,3.45918,0.00220848,398.107,0.027361,-2.83239,0.0273275,0.00135202,1.90695,0.320798,0.00877734,12,0.0301427,3.45918
2,1,Potentiostatic EIS,78.2599,3.45918,0.00213495,354.813,0.0276203,-3.40552,0.0275715,0.00164071,1.81405,0.327138,0.00903564,10,0.0281839,3.45918
2,1,Potentiostatic EIS,78.3404,3.45918,0.00215594,316.227,0.0278784,-3.87505,0.0278147,0.00188404,1.72404,0.331728,0.00924804,9,0.0284606,3.45918
2,1,Potentiostatic EIS,78.4184,3.45918,0.00218631,281.838,0.0281585,-4.32404,0.0280784,0.00212307,1.66955,0.334328,0.00941419,8,0.0283851,3.45918
2,1,Potentiostatic EIS,78.4985,3.45918,0.00236523,251.188,0.0284585,-4.71478,0.0283622,0.00233916,1.55906,0.335617,0.00955114,8,0.0318487,3.45918
2,1,Potentiostatic EIS,78.5827,3.45918,0.00222937,223.872,0.0287531,-4.99449,0.028644,0.00250324,1.4617,0.33563,0.0096504,8,0.0357347,3.45918
2,1,Potentiostatic EIS,78.6718,3.45919,0.00259073,199.526,0.0290614,-5.25502,0.0289392,0.0026617,1.39857,0.334637,0.00972501,8,0.0400951,3.45919
2,1,Potentiostatic EIS,78.7656,3.45918,0.00254461,177.828,0.0293644,-5.50856,0.0292288,0.00281882,1.25216,0.333219,0.00978477,8,0.0449874,3.45918
2,1,Potentiostatic EIS,78.8652,3.45918,0.00229986,158.489,0.02966,-5.66578,0.0295151,0.0029282,1.17996,0.331282,0.00982581,8,0.0504767,3.45918
2,1,Potentiostatic EIS,78.9708,3.45919,0.00243235,141.253,0.0299884,-5.83649,0.0298329,0.00304952,1.09206,0.328827,0.00986099,8,0.0566359,3.45919
2,1,Potentiostatic EIS,79.0823,3.45919,0.00262001,125.892,0.0302928,-5.95151,0.0301295,0.00314096,1.00338,0.326193,0.00988131,8,0.0635464,3.45919
2,1,Potentiostatic EIS,79.2021,3.45919,0.00221131,112.201,0.0306145,-6.00269,0.0304466,0.00320151,0.932998,0.32341,0.00990103,8,0.0713003,3.45919
2,1,Potentiostatic EIS,79.3309,3.45918,0.00227635,99.9997,0.030925,-6.08952,0.0307505,0.00328059,0.807502,0.320364,0.00990724,8,0.0800003,3.45918
2,1,Potentiostatic EIS,79.4698,3.45918,0.00225386,89.1248,0.0312292,-6.08012,0.0310535,0.00330776,0.755829,0.317303,0.0099091,8,0.0897617,3.45918
2,1,Potentiostatic EIS,79.6213,3.45918,0.00220706,79.4325,0.0315498,-6.06536,0.0313732,0.00333365,0.700097,0.314302,0.00991617,8,0.100714,3.45918
2,1,Potentiostatic EIS,79.7855,3.45918,0.00240271,70.7943,0.0318503,-6.00457,0.0316756,0.00333179,0.635661,0.311417,0.00991874,8,0.113003,3.45918
2,1,Potentiostatic EIS,79.9639,3.45919,0.0025786,63.0956,0.0321502,-5.94146,0.0319775,0.00332794,0.567777,0.308601,0.00992159,8,0.126792,3.45919
2,1,Potentiostatic EIS,80.1596,3.45918,0.00283685,56.2341,0.0324578,-5.90072,0.0322858,0.00333682,0.495934,0.296972,0.00963905,8,0.142263,3.45918
2,1,Potentiostatic EIS,80.3726,3.45919,0.00237026,50.1186,0.032734,-5.78081,0.0325675,0.00329707,0.443863,0.295332,0.0096674,8,0.159621,3.45919
2,1,Potentiostatic EIS,80.607,3.4592,0.00224636,44.6682,0.0330141,-5.6578,0.0328533,0.00325476,0.404621,0.293807,0.00969978,8,0.179098,3.4592
2,1,Potentiostatic EIS,80.8653,3.45918,0.00215237,39.8106,0.0332717,-5.53561,0.0331165,0.00320953,0.371857,0.292112,0.00971906,8,0.200952,3.45918
2,1,Potentiostatic EIS,81.1488,3.45919,0.00274959,35.4812,0.0335233,-5.41037,0.0333739,0.00316086,0.348458,0.290711,0.00974558,8,0.225471,3.45919
2,1,Potentiostatic EIS,81.2917,3.45918,0.00141785,31.6227,0.033777,-5.29834,0.0336327,0.00311903,0.288377,0.292654,0.00988503,2,0.0632458,3.45918
2,1,Potentiostatic EIS,81.4367,3.45917,0.00158528,28.1838,0.0340118,-5.11424,0.0338764,0.00303188,0.286812,0.29093,0.009895,2,0.0709628,3.45917
2,1,Potentiostatic EIS,81.599,3.45917,0.00166073,25.1188,0.0342531,-4.9827,0.0341237,0.00297505,0.266637,0.281497,0.0096421,2,0.0796217,3.45917
2,1,Potentiostatic EIS,81.7795,3.4592,0.00214026,22.3871,0.0344868,-4.82297,0.0343647,0.00289955,0.269624,0.281154,0.009696,2,0.0893371,3.4592
2,1,Potentiostatic EIS,81.9794,3.4592,0.00218955,19.9525,0.0347138,-4.65961,0.034599,0.00282,0.262066,0.280678,0.00974336,2,0.100238,3.4592
2,1,Potentiostatic EIS,82.2019,3.45918,0.00183354,17.7828,0.0349075,-4.48746,0.0348005,0.00273119,0.251448,0.280787,0.00980157,2,0.112468,3.45918
2,1,Potentiostatic EIS,82.4492,3.45918,0.00175011,15.8489,0.0351026,-4.33512,0.0350022,0.00265341,0.263883,0.279666,0.00981699,2,0.126192,3.45918
2,1,Potentiostatic EIS,82.7244,3.45919,0.00189728,14.1253,0.0353067,-4.19406,0.0352121,0.00258214,0.235768,0.278712,0.00984038,2,0.14159,3.45919
2,1,Potentiostatic EIS,83.0311,3.4592,0.00195417,12.5892,0.0354842,-4.02849,0.0353965,0.00249285,0.234163,0.277952,0.00986288,2,0.158866,3.4592
2,1,Potentiostatic EIS,83.3736,3.45919,0.00145346,11.2201,0.0356531,-3.89953,0.0355705,0.00242466,0.237435,0.27732,0.00988733,2,0.178251,3.45919
2,1,Potentiostatic EIS,83.7552,3.45919,0.00132595,9.99996,0.035825,-3.72031,0.0357495,0.00232454,0.232413,0.276289,0.00989805,2,0.200001,3.45919
2,1,Potentiostatic EIS,84.1809,3.4592,0.00151159,8.91248,0.0359611,-3.59375,0.0358904,0.0022541,0.238889,0.275263,0.00989876,2,0.224404,3.4592
2,1,Potentiostatic EIS,84.6565,3.4592,0.00152956,7.94325,0.0361171,-3.46467,0.0360511,0.00218266,0.221904,0.274568,0.00991659,2,0.251786,3.4592
2,1,Potentiostatic EIS,85.1885,3.4592,0.00159591,7.07944,0.0362577,-3.35211,0.0361956,0.00212006,0.226694,0.273481,0.00991576,2,0.282508,3.4592
2,1,Potentiostatic EIS,85.7823,3.45919,0.00134353,6.30955,0.0363907,-3.21504,0.0363334,0.00204092,0.219913,0.272836,0.00992865,2,0.31698,3.45919
2,1,Potentiostatic EIS,86.4469,3.45919,0.00132312,5.62339,0.036529,-3.13404,0.0364744,0.00199711,0.209776,0.27194,0.00993372,2,0.355657,3.45919
2,1,Potentiostatic EIS,87.1902,3.4592,0.00134332,5.01185,0.0366421,-3.0077,0.0365916,0.00192261,0.230138,0.271221,0.00993809,2,0.399054,3.4592
2,1,Potentiostatic EIS,88.0222,3.4592,0.001288,4.46682,0.0367473,-2.94594,0.0366987,0.00188858,0.229683,0.270311,0.00993321,2,0.447745,3.4592
2,1,Potentiostatic EIS,88.9508,3.45919,0.00109142,3.98106,0.0368537,-2.82812,0.0368089,0.00181836,0.216458,0.269629,0.00993682,2,0.502378,3.45919
2,1,Potentiostatic EIS,89.9906,3.4592,0.00104577,3.54812,0.036972,-2.75406,0.0369293,0.00177646,0.211415,0.268934,0.00994302,2,0.563679,3.4592
2,1,Potentiostatic EIS,91.1557,3.4592,0.000958082,3.16227,0.0370803,-2.69865,0.0370392,0.00174585,0.185732,0.268404,0.0099525,2,0.632458,3.4592
2,1,Potentiostatic EIS,92.4613,3.45919,0.000635215,2.81837,0.0371828,-2.6397,0.0371433,0.00171246,0.19683,0.267611,0.0099505,2,0.70963,3.45919
2,1,Potentiostatic EIS,93.9236,3.4592,0.000730959,2.51188,0.0372835,-2.59686,0.0372452,0.00168925,0.186008,0.266989,0.00995428,2,0.796217,3.4592
2,1,Potentiostatic EIS,95.5632,3.45919,0.000626506,2.23872,0.0373647,-2.57442,0.037327,0.00167831,0.207725,0.26624,0.00994798,2,0.893369,3.45919
2,1,Potentiostatic EIS,97.4014,3.45919,0.000398473,1.99526,0.0374547,-2.53642,0.037418,0.00165753,0.214312,0.265763,0.00995408,2,1.00238,3.45919
2,1,Potentiostatic EIS,99.4615,3.45919,0.000178083,1.77827,0.0375559,-2.50244,0.0375201,0.00163977,0.183296,0.264853,0.00994682,2,1.12469,3.45919
2,1,Potentiostatic EIS,101.771,3.45919,0.000391571,1.58489,0.0376491,-2.50344,0.0376132,0.00164449,0.214844,0.264362,0.00995298,2,1.26192,3.45919
2,1,Potentiostatic EIS,104.36,3.45919,9.31424e-05,1.41253,0.0377459,-2.5076,0.0377097,0.00165146,0.18801,0.263691,0.00995323,2,1.4159,3.45919
2,1,Potentiostatic EIS,107.264,3.45918,-0.000245681,1.25892,0.0377959,-2.5086,0.0377597,0.00165431,0.206502,0.263242,0.00994948,2,1.58866,3.45918
2,1,Potentiostatic EIS,110.52,3.45918,0.000180285,1.12202,0.0378921,-2.54762,0.0378546,0.00168429,0.203295,0.262805,0.00995823,2,1.78251,3.45918
2,1,Potentiostatic EIS,114.172,3.45919,-1.99392e-05,0.999995,0.0379823,-2.55367,0.0379446,0.00169231,0.205739,0.262145,0.00995687,2,2.00001,3.45919
2,1,Potentiostatic EIS,118.268,3.45919,-2.02458e-05,0.891248,0.0380742,-2.61414,0.0380346,0.00173655,0.196813,0.261469,0.00995521,2,2.24404,3.45919
2,1,Potentiostatic EIS,122.863,3.45919,0.000212828,0.794324,0.0381726,-2.65265,0.0381317,0.00176667,0.192859,0.260749,0.00995345,2,2.51786,3.45919
2,1,Potentiostatic EIS,128.017,3.45919,9.91662e-06,0.707944,0.0382736,-2.71736,0.0382305,0.00181452,0.224252,0.260065,0.00995361,2,2.82508,3.45919
2,1,Potentiostatic EIS,133.796,3.45919,3.99808e-05,0.630955,0.0383839,-2.78563,0.0383385,0.00186543,0.186609,0.259342,0.00995457,2,3.1698,3.45919
2,1,Potentiostatic EIS,140.282,3.45919,0.000209587,0.562339,0.0384555,-2.89542,0.0384064,0.00194251,0.188902,0.258788,0.00995181,2,3.55657,3.45919
2,1,Potentiostatic EIS,147.556,3.45918,-0.000117649,0.501186,0.0385693,-2.98655,0.0385169,0.00200952,0.143888,0.258024,0.00995182,2,3.99054,3.45918
2,1,Potentiostatic EIS,155.715,3.45918,5.40363e-05,0.446681,0.0386883,-3.07564,0.0386326,0.0020758,0.200936,0.257278,0.00995363,2,4.47747,3.45918
2,1,Potentiostatic EIS,164.87,3.45918,0.000122746,0.398106,0.0388073,-3.20475,0.0387466,0.0021695,0.219229,0.256572,0.00995684,2,5.02379,3.45918
2,1,Potentiostatic EIS,175.14,3.45918,-0.000200099,0.354812,0.0389108,-3.30971,0.0388459,0.00224644,0.199834,0.255566,0.00994429,2,5.63679,3.45918
2,1,Potentiostatic EIS,186.655,3.45919,0.000315999,0.316226,0.0390456,-3.46357,0.0389742,0.0023589,0.19481,0.255002,0.00995668,2,6.32458,3.45919
2,1,Potentiostatic EIS,199.575,3.45918,5.90261e-05,0.281837,0.0391834,-3.63149,0.0391048,0.00248184,0.190588,0.254125,0.00995749,2,7.09631,3.45918
2,1,Potentiostatic EIS,214.07,3.45919,-4.5841e-05,0.251188,0.0393181,-3.7929,0.039232,0.0026009,0.187147,0.253271,0.00995815,2,7.96218,3.45919
2,1,Potentiostatic EIS,230.334,3.45917,0.000230185,0.223871,0.0394987,-3.98523,0.0394032,0.00274513,0.190205,0.251997,0.00995358,2,8.9337,3.45917
2,1,Potentiostatic EIS,248.578,3.45918,-0.000175243,0.199525,0.0396413,-4.20755,0.0395344,0.00290846,0.184308,0.251269,0.00996061,2,10.0238,3.45918
2,1,Potentiostatic EIS,269.044,3.45919,-2.95005e-05,0.177827,0.0398023,-4.4144,0.0396843,0.00306357,0.214328,0.250216,0.0099592,2,11.2469,3.45919
2,1,Potentiostatic EIS,292.015,3.45919,0.000254613,0.158489,0.0400057,-4.60619,0.0398765,0.00321273,0.195626,0.248809,0.00995373,2,12.6192,3.45919
2,1,Potentiostatic EIS,317.779,3.45918,-0.0005963,0.141253,0.0401428,-4.8848,0.039997,0.00341826,0.170891,0.247949,0.00995339,2,14.159,3.45918
2,1,Potentiostatic EIS,346.692,3.45919,-0.000279087,0.125892,0.0403551,-5.16765,0.0401911,0.0036348,0.179564,0.247046,0.00996958,2,15.8867,3.45919
2,1,Potentiostatic EIS,379.124,3.45919,-0.000195435,0.112201,0.040537,-5.47342,0.0403522,0.00386658,0.160032,0.245612,0.00995639,2,17.8251,3.45919
2,1,Potentiostatic EIS,415.515,3.45919,-0.000924573,0.0999997,0.0407597,-5.78491,0.0405521,0.00410834,0.167955,0.244336,0.00995906,2,20.0001,3.45919
2,1,Potentiostatic EIS,456.344,3.45919,-0.000167545,0.0891246,0.0410097,-6.13848,0.0407745,0.00438524,0.163671,0.242881,0.00996046,2,22.4405,3.45919
2,1,Potentiostatic EIS,502.144,3.4592,-0.000459024,0.0794325,0.0412272,-6.51812,0.0409607,0.00468,0.172206,0.241571,0.00995928,2,25.1786,3.4592
2,1,Potentiostatic EIS,553.543,3.45919,-0.000731419,0.0707942,0.0414739,-6.93098,0.0411709,0.00500481,0.171062,0.240006,0.009954,2,28.2509,3.45919
2,1,Potentiostatic EIS,611.2,3.45919,0.000154666,0.0630955,0.0417908,-7.36502,0.041446,0.00535717,0.177339,0.238258,0.00995696,2,31.698,3.45919
2,1,Potentiostatic EIS,675.888,3.4592,-6.34986e-05,0.0562339,0.0420841,-7.83019,0.0416917,0.00573343,0.170685,0.236579,0.0099562,2,35.5657,3.4592
2,1,Potentiostatic EIS,748.47,3.4592,-0.000340433,0.0501185,0.0424031,-8.37158,0.0419513,0.00617357,0.150655,0.234852,0.00995844,2,39.9054,3.4592
2,1,Potentiostatic EIS,821.222,3.4592,-0.000242403,0.05,0.0424011,-8.37807,0.0419486,0.00617802,0.162244,0.234929,0.00996123,2,40,3.4592