File: Data/P190_03/EIS_08_P190_03_2/2_EIS_08_P190_03_2 20231004 144812.csv
Step number,Repeats,Step name,Elapsed Time  (s),DC Working Electrode (V),DC Current (A),Frequency (Hz),|Z| (Ohms),Phase (deg),Z' (Ohms),-Z" (Ohms),THD (%),Amplitude (A),Amplitude (V),No of Cycles,Duration of Each Frequency (s),IR Compensated DC Working Electrode (V)
2,1,Potentiostatic EIS,60.2977,3.53423,-0.0133326,1000000,1.23302,84.7325,0.113198,-1.22781,0.835012,0.00814736,0.0100458,1430,0.00143,3.53423
2,1,Potentiostatic EIS,60.5427,3.53417,-0.0150645,891251,1.10561,84.5647,0.104725,-1.10064,0.827035,0.00886467,0.00980072,1310,0.00146984,3.53417
2,1,Potentiostatic EIS,60.7881,3.53411,-0.0163509,794328,0.996463,84.2446,0.0999264,-0.991439,1.075,0.00976876,0.00973382,1445,0.00181915,3.53411
2,1,Potentiostatic EIS,61.0618,3.53407,-0.0178749,707946,0.893543,84.3276,0.0883179,-0.889167,1.05738,0.0111628,0.0099744,1340,0.0018928,3.53407
2,1,Potentiostatic EIS,61.338,3.53401,-0.0192727,630957.25,0.800345,83.7201,0.0875467,-0.795542,1.17397,0.012462,0.00997393,1355,0.00214753,3.53401
2,1,Potentiostatic EIS,61.6204,3.53398,-0.0198973,562341.25,0.717633,83.5529,0.0805805,-0.713095,1.24283,0.0139178,0.00998791,1360,0.00241846,3.53398
2,1,Potentiostatic EIS,61.908,3.53393,-0.0215046,501187,0.645471,83.545,0.0725654,-0.641379,1.30567,0.0154582,0.00997781,1385,0.00276344,3.53393
2,1,Potentiostatic EIS,62.2009,3.53386,-0.02312,446684,0.577629,82.8926,0.0714702,-0.573191,1.42225,0.0172397,0.00995816,1360,0.00304466,3.53386
2,1,Potentiostatic EIS,62.5057,3.53382,-0.0244071,398107,0.519414,82.4674,0.0680905,-0.514931,1.47054,0.0192033,0.00997445,1400,0.00351664,3.53382
2,1,Potentiostatic EIS,62.8826,3.53379,-0.0250365,354813,0.464183,82.2128,0.0628942,-0.459903,1.60591,0.0214043,0.00993551,1365,0.00384709,3.53379
2,1,Potentiostatic EIS,63.2992,3.53373,-0.0267351,316228,0.417301,81.8423,0.0592143,-0.413079,1.67636,0.0238764,0.00996368,1370,0.00433232,3.53373
2,1,Potentiostatic EIS,63.6472,3.53367,-0.0281326,281838.25,0.375849,81.2809,0.0569752,-0.371505,1.73363,0.0260499,0.0097909,1370,0.00486094,3.53367
2,1,Potentiostatic EIS,64.0409,3.53359,-0.0300868,251189,0.337801,80.7462,0.0543213,-0.333405,1.8928,0.0295816,0.0099927,1340,0.00533464,3.53359
2,1,Potentiostatic EIS,64.4618,3.53353,-0.0315566,223872,0.303666,80.3971,0.0506569,-0.299411,1.85569,0.0329772,0.0100141,1360,0.0060749,3.53353
2,1,Potentiostatic EIS,64.9034,3.53345,-0.0332996,199526,0.271894,79.934,0.047522,-0.267708,2.00784,0.0365271,0.0099315,1355,0.00679109,3.53345
2,1,Potentiostatic EIS,65.3721,3.53337,-0.0356218,177828,0.2455,79.1988,0.0460071,-0.241151,2.02846,0.0405053,0.00994406,1355,0.00761973,3.53337
2,1,Potentiostatic EIS,65.875,3.5333,-0.0370601,158489,0.220626,78.4331,0.0442383,-0.216145,2.03791,0.0452225,0.00997727,1360,0.00858103,3.5333
2,1,Potentiostatic EIS,66.4138,3.53321,-0.0393635,141254,0.199072,78.0184,0.041327,-0.194736,2.01144,0.0501587,0.00998523,1355,0.00959267,3.53321
2,1,Potentiostatic EIS,67.2107,3.53313,-0.0408874,125892,0.179716,77.0321,0.0403292,-0.175133,2.13857,0.0554857,0.00997169,1370,0.0108823,3.53313
2,1,Potentiostatic EIS,68.213,3.53379,-0.0217538,112202,0.161806,76.2237,0.0385311,-0.157151,3.38142,0.0617479,0.00999118,1360,0.012121,3.53379
2,1,Potentiostatic EIS,68.719,3.53379,-0.0211538,99999.9,0.14582,75.5258,0.0364469,-0.141192,3.58658,0.0668733,0.00975154,1370,0.0137,3.53379
2,1,Potentiostatic EIS,69.2635,3.53379,-0.0213177,89125.1,0.131518,74.3448,0.03549,-0.126639,3.80077,0.0740597,0.00974007,1365,0.0153156,3.53379
2,1,Potentiostatic EIS,69.8563,3.53379,-0.0212039,79432.8,0.118619,73.2982,0.03409,-0.113615,5.51949,0.0821612,0.00974598,1365,0.0171843,3.53379
2,1,Potentiostatic EIS,70.5708,3.53377,-0.0216694,70794.5,0.107128,72.1071,0.0329139,-0.101947,4.33277,0.0932725,0.00999216,1370,0.0193518,3.53377
2,1,Potentiostatic EIS,70.8017,3.53376,-0.0218696,63095.7,0.0968122,70.9399,0.031615,-0.0915046,4.56364,0.103146,0.00998579,1290,0.0204451,3.53376
2,1,Potentiostatic EIS,71.0406,3.53374,-0.022154,56234.1,0.0880638,69.4896,0.0308555,-0.0824813,4.84689,0.113741,0.0100165,1150,0.0204502,3.53374
2,1,Potentiostatic EIS,71.2765,3.53374,-0.0221879,50118.7,0.0795062,67.9258,0.029879,-0.0736782,5.14263,0.125545,0.00998167,1025,0.0204515,3.53374
2,1,Potentiostatic EIS,71.5133,3.53375,-0.0219164,44668.3,0.0722517,65.7805,0.0296401,-0.0658921,5.3009,0.137964,0.00996813,910,0.0203724,3.53375
2,1,Potentiostatic EIS,71.7538,3.53374,-0.0216026,39810.7,0.06581,64.2745,0.0285655,-0.0592871,5.62856,0.151753,0.00998684,815,0.0204719,3.53374
2,1,Potentiostatic EIS,71.9939,3.53376,-0.0211841,35481.3,0.0599392,62.2573,0.0279018,-0.053049,5.74184,0.166709,0.00999236,725,0.0204333,3.53376
2,1,Potentiostatic EIS,72.2158,3.53376,-0.021282,31622.8,0.0552073,59.8869,0.027698,-0.0477564,5.94615,0.176693,0.00975459,645,0.0203967,3.53376
2,1,Potentiostatic EIS,72.4346,3.53378,-0.0206813,28183.8,0.0503111,57.7805,0.0268241,-0.0425638,5.95965,0.193697,0.00974513,575,0.0204018,3.53378
2,1,Potentiostatic EIS,72.6528,3.53408,-0.0122812,25118.8,0.0468202,55.0983,0.0267891,-0.0383989,6.23207,0.209243,0.00979716,510,0.0203035,3.53408
2,1,Potentiostatic EIS,72.8725,3.5341,-0.0114009,22387.2,0.0429401,52.5575,0.0261061,-0.0340929,6.12408,0.227724,0.00977873,455,0.0203241,3.5341
2,1,Potentiostatic EIS,73.0915,3.53414,-0.0101166,19952.6,0.0402525,49.5803,0.026099,-0.0306449,6.10235,0.247319,0.00995522,405,0.0202981,3.53414
2,1,Potentiostatic EIS,73.3985,3.53418,-0.00958441,17782.8,0.037565,46.936,0.02565,-0.0274447,6.03258,0.265736,0.0099824,360,0.0202443,3.53418
2,1,Potentiostatic EIS,73.6184,3.53421,-0.00888101,15848.9,0.0352059,43.8781,0.025377,-0.0244021,5.84112,0.286196,0.0100757,320,0.0201906,3.53421
2,1,Potentiostatic EIS,73.834,3.53425,-0.00751053,14125.4,0.0334976,40.5295,0.0254605,-0.021768,5.7104,0.300414,0.0100632,285,0.0201765,3.53425
2,1,Potentiostatic EIS,74.0553,3.53426,-0.00728199,12589.2,0.0317901,37.8743,0.0250938,-0.019517,5.61351,0.314824,0.0100083,255,0.0202554,3.53426
2,1,Potentiostatic EIS,74.2765,3.53429,-0.00628888,11220.2,0.0304974,34.601,0.0251032,-0.0173182,5.2467,0.329472,0.010048,225,0.0200532,3.53429
2,1,Potentiostatic EIS,74.5835,3.53436,-0.00509075,9999.98,0.0294267,32.2328,0.0248917,-0.015695,2.37671,0.339075,0.00997784,307,0.0307001,3.53436
2,1,Potentiostatic EIS,74.8375,3.53437,-0.00493194,8912.5,0.028484,29.7687,0.0247251,-0.0141423,2.56706,0.359745,0.010247,273,0.0306311,3.53437
2,1,Potentiostatic EIS,75.0927,3.5344,-0.00410167,7943.27,0.0275573,27.7288,0.0243926,-0.012822,2.78022,0.369492,0.0101822,244,0.0307178,3.5344
2,1,Potentiostatic EIS,75.3036,3.53442,-0.00358468,7079.45,0.0262473,25.273,0.023735,-0.0112058,3.0856,0.336428,0.00883035,217,0.0306521,3.53442
2,1,Potentiostatic EIS,75.5172,3.53442,-0.00381056,6309.57,0.0253049,21.3973,0.0235607,-0.00923206,3.17211,0.382071,0.00966825,193,0.0305885,3.53442
2,1,Potentiostatic EIS,75.7276,3.53442,-0.00388329,5623.41,0.0251698,18.0827,0.0239266,-0.00781241,3.11928,0.417459,0.0105073,172,0.0305864,3.53442
2,1,Potentiostatic EIS,75.9379,3.53446,-0.00272241,5011.87,0.0251112,15.568,0.0241899,-0.0067394,3.11041,0.415067,0.0104228,153,0.0305276,3.53446
2,1,Potentiostatic EIS,76.1474,3.53447,-0.0023429,4466.83,0.025039,13.4436,0.0243529,-0.00582127,3.09659,0.411564,0.0103052,137,0.0306705,3.53447
2,1,Potentiostatic EIS,76.3566,3.53446,-0.00271708,3981.07,0.0249664,11.6546,0.0244517,-0.00504348,3.044,0.409142,0.0102148,122,0.0306451,3.53446
2,1,Potentiostatic EIS,76.5661,3.5345,-0.00170032,3548.13,0.024911,9.99885,0.0245326,-0.00432526,2.9972,0.40569,0.0101062,108,0.0304386,3.5345
2,1,Potentiostatic EIS,76.7349,3.53451,-0.00101002,3162.27,0.0248926,8.45048,0.0246224,-0.00365809,2.92832,0.379472,0.00944605,97,0.0306742,3.53451
2,1,Potentiostatic EIS,76.9034,3.5345,-0.00139931,2818.38,0.0249043,7.08269,0.0247143,-0.00307075,2.86986,0.422621,0.0105251,86,0.030514,3.5345
2,1,Potentiostatic EIS,77.0693,3.5345,-0.00153463,2511.88,0.0249252,5.78551,0.0247982,-0.00251257,2.65949,0.418075,0.0104206,77,0.0306543,3.5345
2,1,Potentiostatic EIS,77.2347,3.53452,-0.000960691,2238.72,0.0249872,4.59863,0.0249067,-0.00200335,2.65665,0.413024,0.0103203,68,0.0303745,3.53452
2,1,Potentiostatic EIS,77.4005,3.53453,-0.000993093,1995.26,0.0250433,3.53819,0.0249956,-0.00154552,2.48876,0.408064,0.0102193,61,0.0305725,3.53453
2,1,Potentiostatic EIS,77.5662,3.53455,-0.000337704,1778.28,0.0251406,2.53762,0.0251159,-0.00111311,2.53983,0.403234,0.0101375,54,0.0303664,3.53455
2,1,Potentiostatic EIS,77.6877,3.53454,-0.000602661,1584.89,0.025227,1.62592,0.0252169,-0.000715789,2.57543,0.351117,0.00885764,48,0.030286,3.53454
2,1,Potentiostatic EIS,77.8091,3.53453,-0.000621864,1412.53,0.0253337,0.844959,0.025331,-0.000373591,2.45762,0.386637,0.00979497,43,0.0304417,3.53453
2,1,Potentiostatic EIS,77.9313,3.53454,-0.000457568,1258.92,0.0254559,0.116292,0.0254558,-5.16674e-05,2.37423,0.404975,0.010309,38,0.0301845,3.53454
2,1,Potentiostatic EIS,78.0539,3.53455,-0.000407755,1122.02,0.0256007,-0.567066,0.0255995,0.000253371,2.34851,0.402574,0.0103062,34,0.0303026,3.53455
2,1,Potentiostatic EIS,78.1795,3.53454,-0.000657501,999.999,0.0257627,-1.16247,0.0257574,0.000522661,2.319,0.397132,0.0102312,30,0.03,3.53454
2,1,Potentiostatic EIS,78.3013,3.53456,-9.13641e-05,891.25,0.0259375,-1.72642,0.0259258,0.000781424,2.28848,0.391739,0.0101608,27,0.0302945,3.53456
2,1,Potentiostatic EIS,78.4234,3.53456,-0.000139531,794.328,0.0261148,-2.24385,0.0260948,0.00102246,2.2529,0.38753,0.0101203,24,0.0302142,3.53456
2,1,Potentiostatic EIS,78.545,3.53456,0.000120112,707.945,0.0263131,-2.71803,0.0262835,0.00124779,2.21401,0.383675,0.0100957,21,0.0296633,3.53456
2,1,Potentiostatic EIS,78.6667,3.53457,0.000137354,630.956,0.0265259,-3.11546,0.0264867,0.00144163,2.16611,0.379573,0.0100685,19,0.030113,3.53457
2,1,Potentiostatic EIS,78.7888,3.53456,8.5477e-05,562.34,0.0267469,-3.4577,0.0266982,0.00161315,2.1236,0.376258,0.0100638,17,0.0302308,3.53456
2,1,Potentiostatic EIS,78.9117,3.53457,0.000315365,501.185,0.0269634,-3.81601,0.0269036,0.00179449,2.06514,0.371842,0.0100261,15,0.029929,3.53457
2,1,Potentiostatic EIS,79.0346,3.53458,0.00021402,446.683,0.0271809,-4.04398,0.0271132,0.00191685,2.0027,0.368837,0.0100253,13,0.0291034,3.53458
2,1,Potentiostatic EIS,79.1135,3.53457,-1.695e-05,398.107,0.0274045,-4.28641,0.0273278,0.00204827,1.99684,0.323541,0.00886648,12,0.0301427,3.53457
2,1,Potentiostatic EIS,79.192,3.53456,-7.20135e-05,354.813,0.0276323,-4.49443,0.0275474,0.00216533,1.86992,0.329278,0.00909872,10,0.0281839,3.53456
2,1,Potentiostatic EIS,79.2713,3.53456,0.000180951,316.227,0.0278847,-4.67759,0.0277918,0.00227396,1.77801,0.333183,0.0092907,9,0.0284606,3.53456
2,1,Potentiostatic EIS,79.3501,3.53457,5.27489e-05,281.838,0.0281187,-4.82885,0.0280189,0.00236702,1.71622,0.335725,0.00944014,8,0.0283851,3.53457
2,1,Potentiostatic EIS,79.4304,3.53456,0.000158913,251.188,0.0283827,-4.93407,0.0282775,0.00244118,1.62281,0.336773,0.00955853,8,0.0318487,3.53456
2,1,Potentiostatic EIS,79.5151,3.53457,8.78068e-05,223.872,0.0286142,-5.02332,0.0285043,0.00250549,1.51135,0.337074,0.00964509,8,0.0357347,3.53457
2,1,Potentiostatic EIS,79.6037,3.53457,0.000211753,199.526,0.0288597,-5.0523,0.0287476,0.00254153,1.39682,0.336614,0.00971458,8,0.0400951,3.53457
2,1,Potentiostatic EIS,79.6969,3.53457,0.000393036,177.828,0.0291192,-5.07829,0.0290049,0.00257754,1.29394,0.335585,0.00977196,8,0.0449874,3.53457
2,1,Potentiostatic EIS,79.7958,3.53457,0.000295147,158.489,0.0293364,-5.05709,0.0292222,0.00258596,1.18819,0.334275,0.00980642,8,0.0504767,3.53457
2,1,Potentiostatic EIS,79.9018,3.53457,0.000397527,141.253,0.0295878,-5.05086,0.0294729,0.00260491,1.09754,0.332413,0.00983537,8,0.0566359,3.53457
2,1,Potentiostatic EIS,80.0142,3.53457,0.000399802,125.892,0.0298118,-5.01396,0.0296977,0.00260551,1.02498,0.330598,0.00985573,8,0.0635464,3.53457
2,1,Potentiostatic EIS,80.1347,3.53456,6.31881e-05,112.201,0.0300384,-4.95186,0.0299263,0.00259287,0.939508,0.328556,0.00986929,8,0.0713003,3.53456
2,1,Potentiostatic EIS,80.2634,3.53457,5.34359e-05,99.9997,0.0302854,-4.90264,0.0301746,0.00258827,0.835224,0.32651,0.00988846,8,0.0800003,3.53457
2,1,Potentiostatic EIS,80.4013,3.53457,2.51736e-06,89.1248,0.0304926,-4.80924,0.0303852,0.00255645,0.762964,0.324355,0.00989043,8,0.0897617,3.53457
2,1,Potentiostatic EIS,80.5524,3.53456,-8.20277e-05,79.4325,0.0307182,-4.70613,0.0306146,0.00252028,0.686321,0.322224,0.00989813,8,0.100714,3.53456
2,1,Potentiostatic EIS,80.7158,3.53457,0.000334198,70.7943,0.0309261,-4.60707,0.0308262,0.00248405,0.623982,0.320086,0.00989903,8,0.113003,3.53457
2,1,Potentiostatic EIS,80.8935,3.53456,0.000368153,63.0956,0.0311259,-4.47594,0.031031,0.00242908,0.567222,0.318097,0.00990104,8,0.126792,3.53456
2,1,Potentiostatic EIS,81.0888,3.53458,0.000720053,56.2341,0.0313333,-4.37088,0.0312422,0.00238799,0.481154,0.308376,0.00966244,8,0.142263,3.53458
2,1,Potentiostatic EIS,81.3028,3.53458,0.000306195,50.1186,0.0315208,-4.22778,0.0314351,0.00232377,0.438533,0.30737,0.00968855,8,0.159621,3.53458
2,1,Potentiostatic EIS,81.5363,3.53457,0.000103879,44.6682,0.031699,-4.08255,0.0316185,0.00225676,0.385803,0.306421,0.00971322,8,0.179098,3.53457
2,1,Potentiostatic EIS,81.7935,3.53456,-1.50455e-05,39.8106,0.0318737,-3.93816,0.0317984,0.00218907,0.355185,0.305299,0.009731,8,0.200952,3.53456
2,1,Potentiostatic EIS,82.077,3.53458,0.00055374,35.4812,0.0320317,-3.79044,0.0319616,0.00211754,0.316739,0.304488,0.00975326,8,0.225471,3.53458
2,1,Potentiostatic EIS,82.2193,3.53456,-0.00041213,31.6227,0.0321995,-3.6451,0.0321344,0.00204712,0.314432,0.306863,0.00988083,2,0.0632458,3.53456
2,1,Potentiostatic EIS,82.3644,3.53456,-0.000320796,28.1838,0.0323485,-3.4737,0.0322891,0.00196,0.305014,0.306096,0.00990173,2,0.0709628,3.53456
2,1,Potentiostatic EIS,82.527,3.53457,-0.000230549,25.1188,0.0324956,-3.29922,0.0324418,0.00187014,0.283105,0.296533,0.00963603,2,0.0796217,3.53457
2,1,Potentiostatic EIS,82.7079,3.53458,-0.00015189,22.3871,0.0326115,-3.18879,0.032561,0.00181406,0.452955,0.296726,0.00967667,2,0.0893371,3.53458
2,1,Potentiostatic EIS,82.9077,3.53456,-0.000492102,19.9525,0.0327433,-3.00939,0.0326981,0.00171901,1.52993,0.297384,0.00973733,2,0.100238,3.53456
2,1,Potentiostatic EIS,83.1303,3.53456,-0.000377136,17.7828,0.0328649,-2.85525,0.0328241,0.0016371,1.15046,0.297955,0.00979233,2,0.112468,3.53456
2,1,Potentiostatic EIS,83.3775,3.53456,-0.000655825,15.8489,0.0329732,-2.71096,0.0329363,0.00155955,0.817109,0.297748,0.0098177,2,0.126192,3.53456
2,1,Potentiostatic EIS,83.6526,3.53456,-0.000368175,14.1253,0.0330597,-2.56593,0.0330265,0.00148005,0.728178,0.297582,0.00983804,2,0.14159,3.53456
2,1,Potentiostatic EIS,83.9594,3.53457,-0.000375516,12.5892,0.0331562,-2.41827,0.0331266,0.001399,0.64372,0.29752,0.00986466,2,0.158866,3.53457
2,1,Potentiostatic EIS,84.3015,3.53457,-0.000687635,11.2201,0.0332454,-2.29401,0.0332187,0.00133072,0.248323,0.29717,0.00987962,2,0.178251,3.53457
2,1,Potentiostatic EIS,84.6832,3.53456,-0.000876328,9.99996,0.0333311,-2.17418,0.0333071,0.0012645,0.314447,0.296612,0.00988638,2,0.200001,3.53456
2,1,Potentiostatic EIS,85.1092,3.53457,-0.000678554,8.91248,0.0334026,-2.07666,0.0333807,0.0012104,0.292392,0.296306,0.00989742,2,0.224404,3.53457
2,1,Potentiostatic EIS,85.5847,3.53456,-0.000759804,7.94325,0.033443,-1.97648,0.0334231,0.00115342,0.229221,0.296365,0.00991128,2,0.251786,3.53456
2,1,Potentiostatic EIS,86.1166,3.53456,-0.000593028,7.07944,0.0335196,-1.88684,0.0335015,0.00110365,0.212619,0.295888,0.00991811,2,0.282508,3.53456
2,1,Potentiostatic EIS,86.7104,3.53457,-0.000860148,6.30955,0.0335607,-1.79815,0.0335441,0.00105308,0.194137,0.295884,0.00993007,2,0.31698,3.53457
2,1,Potentiostatic EIS,87.3761,3.53456,-0.00100249,5.62339,0.0335953,-1.73222,0.03358,0.00101553,0.243442,0.295571,0.00992978,2,0.355657,3.53456
2,1,Potentiostatic EIS,88.1196,3.53456,-0.000853226,5.01185,0.033644,-1.6695,0.0336297,0.000980191,0.19633,0.295269,0.00993407,2,0.399054,3.53456
2,1,Potentiostatic EIS,88.9515,3.53457,-0.000858088,4.46682,0.0337,-1.61466,0.0336866,0.000949579,0.216389,0.29483,0.00993579,2,0.447745,3.53457
2,1,Potentiostatic EIS,89.8823,3.53456,-0.00106521,3.98106,0.0337397,-1.57035,0.033727,0.000924615,0.188118,0.294594,0.0099395,2,0.502378,3.53456
2,1,Potentiostatic EIS,90.9219,3.53457,-0.00106063,3.54812,0.0337901,-1.51252,0.0337783,0.000891902,0.175208,0.294082,0.00993704,2,0.563679,3.53457
2,1,Potentiostatic EIS,92.0869,3.53457,-0.00105075,3.16227,0.0338217,-1.47839,0.0338105,0.000872597,0.195071,0.294037,0.00994486,2,0.632458,3.53457
2,1,Potentiostatic EIS,93.3922,3.53457,-0.00121609,2.81837,0.0338496,-1.47003,0.0338385,0.000868381,0.187291,0.293659,0.00994022,2,0.70963,3.53457
2,1,Potentiostatic EIS,94.8544,3.53457,-0.00118335,2.51188,0.0338906,-1.43204,0.03388,0.000846965,0.199575,0.293336,0.00994133,2,0.796217,3.53457
2,1,Potentiostatic EIS,96.4933,3.53457,-0.00121611,2.23872,0.033941,-1.43162,0.0339304,0.000847977,0.186108,0.293063,0.00994685,2,0.893369,3.53457
2,1,Potentiostatic EIS,98.3306,3.53457,-0.00119468,1.99526,0.0339762,-1.42834,0.0339656,0.000846914,0.172135,0.292802,0.00994828,2,1.00238,3.53457
2,1,Potentiostatic EIS,100.391,3.53456,-0.00144836,1.77827,0.0340259,-1.42871,0.0340153,0.00084837,0.166002,0.292152,0.00994073,2,1.12469,3.53456
2,1,Potentiostatic EIS,102.701,3.53457,-0.00134706,1.58489,0.0340601,-1.42515,0.0340496,0.000847106,0.21212,0.292057,0.0099475,2,1.26192,3.53457
2,1,Potentiostatic EIS,105.29,3.53456,-0.00144046,1.41253,0.0341,-1.43744,0.0340892,0.000855412,0.203056,0.291726,0.00994784,2,1.4159,3.53456
2,1,Potentiostatic EIS,108.194,3.53456,-0.00153025,1.25892,0.0341495,-1.46255,0.0341383,0.000871618,0.178947,0.291358,0.00994973,2,1.58866,3.53456
2,1,Potentiostatic EIS,111.451,3.53456,-0.00142216,1.12202,0.0341797,-1.48252,0.0341682,0.000884293,0.194719,0.291116,0.00995027,2,1.78251,3.53456
2,1,Potentiostatic EIS,115.103,3.53456,-0.00138519,0.999995,0.0342403,-1.51197,0.0342284,0.000903457,0.192575,0.290596,0.00995009,2,2.00001,3.53456
2,1,Potentiostatic EIS,119.199,3.53457,-0.00153077,0.891248,0.0342764,-1.56477,0.0342636,0.000935984,0.190621,0.290201,0.00994706,2,2.24404,3.53457
2,1,Potentiostatic EIS,123.793,3.53457,-0.00122097,0.794324,0.0343122,-1.62251,0.0342985,0.000971527,0.174828,0.289931,0.00994819,2,2.51786,3.53457
2,1,Potentiostatic EIS,128.948,3.53457,-0.00137434,0.707944,0.0343796,-1.66628,0.0343651,0.000999689,0.201921,0.289442,0.0099509,2,2.82508,3.53457
2,1,Potentiostatic EIS,134.727,3.53457,-0.00121974,0.630955,0.0344098,-1.74782,0.0343938,0.00104951,0.198587,0.28914,0.00994925,2,3.1698,3.53457
2,1,Potentiostatic EIS,141.213,3.53456,-0.00112793,0.562339,0.0344572,-1.81629,0.0344399,0.00109212,0.188871,0.288527,0.0099418,2,3.55657,3.53456
2,1,Potentiostatic EIS,148.488,3.53457,-0.0013332,0.501186,0.0345245,-1.89028,0.0345057,0.00113881,0.199403,0.288104,0.00994664,2,3.99054,3.53457
2,1,Potentiostatic EIS,156.647,3.53457,-0.00113414,0.446681,0.0345755,-1.98453,0.0345548,0.00119734,0.178835,0.287914,0.00995474,2,4.47747,3.53457
2,1,Potentiostatic EIS,165.802,3.53457,-0.000939848,0.398106,0.0346222,-2.08609,0.0345993,0.00126029,0.218651,0.287216,0.00994405,2,5.02379,3.53457
2,1,Potentiostatic EIS,176.072,3.53455,-0.00140977,0.354812,0.0346877,-2.18415,0.0346625,0.001322,0.181712,0.286652,0.00994327,2,5.63679,3.53455
2,1,Potentiostatic EIS,187.588,3.53456,-0.000943328,0.316226,0.0347584,-2.32915,0.0347297,0.00141258,0.192432,0.286356,0.00995328,2,6.32458,3.53456
2,1,Potentiostatic EIS,200.507,3.53456,-0.000927603,0.281837,0.0348446,-2.43711,0.0348131,0.00148169,0.187742,0.285478,0.00994738,2,7.09631,3.53456
2,1,Potentiostatic EIS,215.003,3.53456,-0.00120629,0.251188,0.0349102,-2.58185,0.0348748,0.00157258,0.185763,0.284943,0.0099474,2,7.96218,3.53456
2,1,Potentiostatic EIS,231.266,3.53456,-0.0005849,0.223871,0.0350082,-2.68534,0.0349698,0.00164016,0.194844,0.284246,0.00995093,2,8.9337,3.53456
2,1,Potentiostatic EIS,249.509,3.53456,-0.000800059,0.199525,0.0350955,-2.86395,0.0350517,0.00175353,0.193196,0.283549,0.00995128,2,10.0238,3.53456
2,1,Potentiostatic EIS,269.976,3.53457,-0.000712879,0.177827,0.0351825,-3.02131,0.0351336,0.00185438,0.201139,0.282742,0.00994758,2,11.2469,3.53457
2,1,Potentiostatic EIS,292.947,3.53457,-0.000220386,0.158489,0.0352861,-3.18949,0.0352315,0.00196326,0.193837,0.281866,0.00994596,2,12.6192,3.53457
2,1,Potentiostatic EIS,318.712,3.53458,-0.000499081,0.141253,0.0354047,-3.41374,0.0353419,0.0021082,0.174192,0.281201,0.00995583,2,14.159,3.53458
2,1,Potentiostatic EIS,347.625,3.53457,-0.000749805,0.125892,0.0354908,-3.60602,0.0354206,0.00223221,0.18429,0.280522,0.00995596,2,15.8867,3.53457
2,1,Potentiostatic EIS,380.058,3.53457,-0.000340572,0.112201,0.0356156,-3.8193,0.0355365,0.00237235,0.178313,0.279317,0.00994806,2,17.8251,3.53457
2,1,Potentiostatic EIS,416.45,3.53458,-0.000868977,0.0999997,0.0357532,-4.07146,0.0356629,0.0025385,0.166406,0.27825,0.00994831,2,20.0001,3.53458
2,1,Potentiostatic EIS,457.278,3.53457,-0.000468609,0.0891246,0.0359149,-4.31914,0.0358129,0.00270482,0.176553,0.277138,0.0099534,2,22.4405,3.53457
2,1,Potentiostatic EIS,503.079,3.53457,-0.000401801,0.0794325,0.0360473,-4.60783,0.0359308,0.00289587,0.174283,0.276124,0.00995352,2,25.1786,3.53457
2,1,Potentiostatic EIS,554.478,3.53457,-0.000899634,0.0707942,0.0361814,-4.94251,0.0360469,0.00311725,0.184749,0.275,0.00994985,2,28.2509,3.53457
2,1,Potentiostatic EIS,612.134,3.53458,-7.51363e-05,0.0630955,0.0363535,-5.23945,0.0362016,0.00331974,0.188618,0.273703,0.00995005,2,31.698,3.53458
2,1,Potentiostatic EIS,676.823,3.53457,-0.000291489,0.0562339,0.0365489,-5.58266,0.0363755,0.00355554,0.182159,0.272361,0.0099545,2,35.5657,3.53457
2,1,Potentiostatic EIS,749.406,3.53458,-0.00060631,0.0501185,0.0367454,-5.95235,0.0365473,0.00381054,0.166869,0.270895,0.00995413,2,39.9054,3.53458
2,1,Potentiostatic EIS,822.158,3.53457,-0.000379241,0.05,0.0367301,-5.98428,0.0365299,0.00382932,0.155465,0.271008,0.00995415,2,40,3.53457