File: Data/P190_04/EIS_08_P190_04_1/2_EIS_08_P190_04_1 20231019 115458.csv
Step number,Repeats,Step name,Elapsed Time  (s),DC Working Electrode (V),DC Current (A),Frequency (Hz),|Z| (Ohms),Phase (deg),Z' (Ohms),-Z" (Ohms),THD (%),Amplitude (A),Amplitude (V),No of Cycles,Duration of Each Frequency (s),IR Compensated DC Working Electrode (V)
2,1,Potentiostatic EIS,60.2973,3.48942,-0.0129082,1000000,3.57876,89.067,0.0582745,-3.57829,0.720368,0.00276013,0.00987724,1430,0.00143,3.48942
2,1,Potentiostatic EIS,60.5189,3.48941,-0.0132223,891251,3.19071,88.5048,0.0832578,-3.18963,0.69475,0.00309801,0.00988485,1310,0.00146984,3.48941
2,1,Potentiostatic EIS,60.749,3.48938,-0.0134904,794328,2.86337,88.3942,0.0802377,-2.86225,0.905651,0.0034578,0.00990103,1445,0.00181915,3.48938
2,1,Potentiostatic EIS,60.9788,3.48937,-0.0137745,707946,2.55559,88.4367,0.0697178,-2.55464,0.727989,0.00388028,0.00991626,1340,0.0018928,3.48937
2,1,Potentiostatic EIS,61.2119,3.48934,-0.0143107,630957.25,2.28433,87.9157,0.0830822,-2.28282,0.803338,0.00434645,0.00992875,1355,0.00214753,3.48934
2,1,Potentiostatic EIS,61.4538,3.48931,-0.0147387,562341.25,2.03674,87.8453,0.076578,-2.0353,0.800182,0.00483508,0.00984797,1360,0.00241846,3.48931
2,1,Potentiostatic EIS,61.7033,3.48931,-0.0147713,501187,1.82058,87.9633,0.0647027,-1.81943,0.80212,0.00533334,0.00970993,1385,0.00276344,3.48931
2,1,Potentiostatic EIS,61.9728,3.48927,-0.015395,446684,1.62259,87.42,0.0730392,-1.62094,0.811742,0.00612489,0.00993824,1360,0.00304466,3.48927
2,1,Potentiostatic EIS,62.2461,3.48925,-0.0157067,398107,1.45476,87.1743,0.0717165,-1.45299,0.774964,0.00685106,0.00996665,1400,0.00351664,3.48925
2,1,Potentiostatic EIS,62.5309,3.48924,-0.0160345,354813,1.29616,86.9955,0.067937,-1.29438,0.80372,0.00766481,0.00993484,1365,0.00384709,3.48924
2,1,Potentiostatic EIS,62.8327,3.48923,-0.0162494,316228,1.15479,86.7997,0.0644681,-1.15299,0.859938,0.00860283,0.00993453,1370,0.00433232,3.48923
2,1,Potentiostatic EIS,63.1467,3.4892,-0.0168623,281838.25,1.03543,86.314,0.0665669,-1.03329,0.93243,0.00960399,0.00994429,1370,0.00486094,3.4892
2,1,Potentiostatic EIS,63.4758,3.48918,-0.017371,251189,0.926378,85.9656,0.0651759,-0.924082,0.860827,0.0107768,0.00998335,1340,0.00533464,3.48918
2,1,Potentiostatic EIS,63.9827,3.48916,-0.0177614,223872,0.830029,86.0105,0.0577484,-0.828018,0.995741,0.0120236,0.00997997,1360,0.0060749,3.48916
2,1,Potentiostatic EIS,64.352,3.48912,-0.0185579,199526,0.738411,85.7541,0.0546697,-0.736384,0.99712,0.0132551,0.00978773,1355,0.00679109,3.48912
2,1,Potentiostatic EIS,64.7467,3.48911,-0.0184786,177828,0.663379,85.2704,0.0546974,-0.66112,0.982324,0.0145606,0.00965975,1355,0.00761973,3.48911
2,1,Potentiostatic EIS,65.208,3.48906,-0.0194402,158489,0.593073,84.8036,0.0537145,-0.590635,1.12594,0.0168006,0.00996402,1360,0.00858103,3.48906
2,1,Potentiostatic EIS,65.7031,3.48903,-0.0201273,141254,0.530919,84.7879,0.0482305,-0.528724,1.15604,0.0188028,0.00998275,1355,0.00959267,3.48903
2,1,Potentiostatic EIS,66.2316,3.48899,-0.0209044,125892,0.476546,84.1678,0.0484245,-0.47408,1.29269,0.0209323,0.00997519,1370,0.0108823,3.48899
2,1,Potentiostatic EIS,67.0498,3.48894,-0.0214355,112202,0.425271,83.6454,0.0470694,-0.422658,1.15672,0.0234758,0.00998358,1360,0.012121,3.48894
2,1,Potentiostatic EIS,67.6128,3.48893,-0.02177,99999.9,0.380309,83.2939,0.0444111,-0.377707,1.45114,0.0262178,0.00997088,1370,0.0137,3.48893
2,1,Potentiostatic EIS,68.227,3.48889,-0.022416,89125.1,0.341236,82.7984,0.042778,-0.338544,1.43267,0.0292901,0.00999486,1365,0.0153156,3.48889
2,1,Potentiostatic EIS,68.8966,3.48886,-0.0233063,79432.8,0.30558,82.0227,0.0424086,-0.302623,2.01634,0.0326432,0.00997513,1365,0.0171843,3.48886
2,1,Potentiostatic EIS,69.6229,3.48881,-0.0242897,70794.5,0.273599,81.3872,0.0409733,-0.270513,1.45088,0.0364942,0.00998478,1370,0.0193518,3.48881
2,1,Potentiostatic EIS,69.8639,3.48878,-0.0248988,63095.7,0.24499,80.8998,0.0387478,-0.241906,1.53988,0.0407176,0.0099754,1290,0.0204451,3.48878
2,1,Potentiostatic EIS,70.1116,3.48872,-0.0259961,56234.1,0.219802,79.9649,0.0383007,-0.216439,1.60146,0.0454081,0.00998076,1150,0.0204502,3.48872
2,1,Potentiostatic EIS,70.3612,3.4887,-0.0261801,50118.7,0.199292,79.4022,0.0366525,-0.195893,1.63193,0.050486,0.0100623,1025,0.0204515,3.4887
2,1,Potentiostatic EIS,70.6105,3.4887,-0.0262134,44668.3,0.176631,77.848,0.037182,-0.172673,1.7868,0.0563929,0.00996074,910,0.0203724,3.4887
2,1,Potentiostatic EIS,70.8619,3.48869,-0.0265346,39810.7,0.158453,77.1155,0.035333,-0.154464,1.72047,0.0625178,0.00990619,815,0.0204719,3.48869
2,1,Potentiostatic EIS,71.2086,3.48866,-0.0266884,35481.3,0.142502,75.9295,0.0346446,-0.138227,1.73925,0.0697706,0.00994249,725,0.0204333,3.48866
2,1,Potentiostatic EIS,71.5501,3.48916,-0.0138928,31622.8,0.128827,74.4801,0.0344707,-0.124129,4.73269,0.0776275,0.0100005,645,0.0203967,3.48916
2,1,Potentiostatic EIS,71.7511,3.4892,-0.0134424,28183.8,0.115306,73.3025,0.0331296,-0.110444,4.91216,0.0843282,0.00972351,575,0.0204018,3.4892
2,1,Potentiostatic EIS,71.9505,3.48959,-0.00449081,25118.8,0.104963,71.5154,0.0332786,-0.0995482,5.38741,0.0928532,0.00974552,510,0.0203035,3.48959
2,1,Potentiostatic EIS,72.1513,3.4896,-0.00491102,22387.2,0.0939483,69.822,0.0324064,-0.0881823,5.66629,0.10309,0.00968391,455,0.0203241,3.4896
2,1,Potentiostatic EIS,72.3513,3.48961,-0.00474012,19952.6,0.0856379,67.8321,0.0323131,-0.0793077,5.94905,0.114681,0.00982103,405,0.0202981,3.48961
2,1,Potentiostatic EIS,72.5525,3.48959,-0.00417698,17782.8,0.0776213,65.8469,0.0317608,-0.070826,6.32491,0.126565,0.00982409,360,0.0202443,3.48959
2,1,Potentiostatic EIS,72.7599,3.48958,-0.00377319,15848.9,0.0703184,63.5336,0.0313391,-0.0629487,6.41556,0.139921,0.00983902,320,0.0201906,3.48958
2,1,Potentiostatic EIS,72.9602,3.48958,-0.0037749,14125.4,0.0647429,60.9038,0.031483,-0.0565727,6.61627,0.153282,0.00992402,285,0.0201765,3.48958
2,1,Potentiostatic EIS,73.1606,3.48962,-0.00358176,12589.2,0.0591523,58.4668,0.0309362,-0.0504178,6.57117,0.168951,0.00999384,255,0.0202554,3.48962
2,1,Potentiostatic EIS,73.3605,3.48957,-0.00392147,11220.2,0.0545646,55.3932,0.0309895,-0.0449104,6.64175,0.182827,0.0099759,225,0.0200532,3.48957
2,1,Potentiostatic EIS,73.6222,3.48982,-0.00369811,9999.98,0.0506251,52.9736,0.0304856,-0.0404169,3.25717,0.196791,0.00996255,307,0.0307001,3.48982
2,1,Potentiostatic EIS,73.8331,3.4898,-0.00408966,8912.5,0.0471871,50.1628,0.0302284,-0.0362335,3.59385,0.224519,0.0105944,273,0.0306311,3.4898
2,1,Potentiostatic EIS,74.0447,3.48981,-0.00365881,7943.27,0.0441615,47.442,0.029868,-0.032529,3.94208,0.238178,0.0105183,244,0.0307178,3.48981
2,1,Potentiostatic EIS,74.2558,3.48984,-0.00322247,7079.45,0.0411183,44.8421,0.0291551,-0.0289948,4.24379,0.254311,0.0104568,217,0.0306521,3.48984
2,1,Potentiostatic EIS,74.4671,3.48983,-0.00354218,6309.57,0.0383217,40.9906,0.0289258,-0.0251365,4.46858,0.271821,0.0104166,193,0.0305885,3.48983
2,1,Potentiostatic EIS,74.6778,3.48987,-0.0024246,5623.41,0.0364674,37.0457,0.0291066,-0.0219698,4.54141,0.282521,0.0103028,172,0.0305864,3.48987
2,1,Potentiostatic EIS,74.8885,3.48987,-0.00283543,5011.87,0.0351976,33.5393,0.0293375,-0.019447,4.50851,0.290672,0.010231,153,0.0305276,3.48987
2,1,Potentiostatic EIS,75.1002,3.48988,-0.00236346,4466.83,0.0341302,30.2774,0.0294747,-0.017208,4.40356,0.297714,0.010161,137,0.0306705,3.48988
2,1,Potentiostatic EIS,75.2682,3.48989,-0.00212411,3981.07,0.0331982,27.224,0.0295207,-0.0151872,4.34598,0.272882,0.0090592,122,0.0306451,3.48989
2,1,Potentiostatic EIS,75.4347,3.48989,-0.00213436,3548.13,0.0324435,24.3899,0.0295481,-0.0133973,4.16432,0.307403,0.00997321,108,0.0304386,3.48989
2,1,Potentiostatic EIS,75.6024,3.4899,-0.00180941,3162.27,0.0318751,21.7262,0.0296108,-0.0117992,3.96036,0.330409,0.0105318,97,0.0306742,3.4899
2,1,Potentiostatic EIS,75.7692,3.48989,-0.00196954,2818.38,0.0313886,19.245,0.0296345,-0.0103459,3.72833,0.332141,0.0104254,86,0.030514,3.48989
2,1,Potentiostatic EIS,75.9364,3.48993,-0.00126065,2511.88,0.0310366,16.9008,0.0296961,-0.00902279,3.59231,0.332587,0.0103224,77,0.0306543,3.48993
2,1,Potentiostatic EIS,76.1035,3.48992,-0.00167321,2238.72,0.0307608,14.7241,0.0297507,-0.00781832,3.42119,0.33272,0.0102347,68,0.0303745,3.48992
2,1,Potentiostatic EIS,76.2695,3.48994,-0.00139897,1995.26,0.0305787,12.7572,0.0298238,-0.00675239,3.16397,0.331935,0.0101501,61,0.0305725,3.48994
2,1,Potentiostatic EIS,76.3928,3.48993,-0.001707,1778.28,0.0304249,10.9149,0.0298745,-0.00576101,2.96644,0.28551,0.00868663,54,0.0303664,3.48993
2,1,Potentiostatic EIS,76.5164,3.48992,-0.00162229,1584.89,0.0303851,9.26637,0.0299886,-0.00489276,2.99098,0.314938,0.00956942,48,0.030286,3.48992
2,1,Potentiostatic EIS,76.6389,3.48993,-0.00130214,1412.53,0.0303679,7.73417,0.0300916,-0.00408682,2.76551,0.342697,0.010407,43,0.0304417,3.48993
2,1,Potentiostatic EIS,76.7615,3.48994,-0.00117278,1258.92,0.0303819,6.42911,0.0301908,-0.00340197,2.61368,0.340298,0.0103389,38,0.0301845,3.48994
2,1,Potentiostatic EIS,76.8839,3.48994,-0.00116465,1122.02,0.0304164,5.13229,0.0302945,-0.00272092,2.47093,0.337254,0.0102581,34,0.0303026,3.48994
2,1,Potentiostatic EIS,77.0064,3.48994,-0.0014968,999.999,0.0304962,3.98463,0.0304225,-0.00211915,2.38947,0.334284,0.0101944,30,0.03,3.48994
2,1,Potentiostatic EIS,77.1291,3.48993,-0.00133276,891.25,0.0306295,2.95613,0.0305887,-0.0015796,2.30356,0.331234,0.0101455,27,0.0302945,3.48993
2,1,Potentiostatic EIS,77.2519,3.48994,-0.00139773,794.328,0.0307494,2.02103,0.0307303,-0.00108442,2.23689,0.328733,0.0101084,24,0.0302142,3.48994
2,1,Potentiostatic EIS,77.3743,3.48996,-0.000873787,707.945,0.0309029,1.19475,0.0308962,-0.000644349,2.21825,0.326035,0.0100754,21,0.0296633,3.48996
2,1,Potentiostatic EIS,77.4999,3.48994,-0.00142089,630.956,0.0310797,0.420385,0.0310789,-0.000228033,2.09059,0.323414,0.0100516,19,0.030113,3.48994
2,1,Potentiostatic EIS,77.6229,3.48998,-0.000572535,562.34,0.0312361,-0.270553,0.0312357,0.000147497,2.03451,0.321275,0.0100354,17,0.0302308,3.48998
2,1,Potentiostatic EIS,77.7453,3.48997,-0.0005706,501.185,0.0314679,-0.896173,0.031464,0.000492174,1.9871,0.31915,0.010043,15,0.029929,3.48997
2,1,Potentiostatic EIS,77.824,3.48997,-0.000516573,446.683,0.0316579,-1.48111,0.0316473,0.000818274,1.94634,0.273341,0.00865339,13,0.0291034,3.48997
2,1,Potentiostatic EIS,77.9036,3.48997,-0.000520163,398.107,0.0318833,-1.95324,0.0318648,0.00108671,1.8767,0.27986,0.00892285,12,0.0301427,3.48997
2,1,Potentiostatic EIS,77.9823,3.48998,-0.000551744,354.813,0.0321039,-2.39164,0.032076,0.00133969,1.78219,0.284782,0.00914261,10,0.0281839,3.48998
2,1,Potentiostatic EIS,78.0608,3.48998,-0.000556267,316.227,0.0323758,-2.76467,0.0323381,0.00156161,1.70039,0.288201,0.00933074,9,0.0284606,3.48998
2,1,Potentiostatic EIS,78.1391,3.48997,-0.000732811,281.838,0.0325831,-3.11245,0.032535,0.00176912,1.61581,0.29027,0.0094579,8,0.0283851,3.48997
2,1,Potentiostatic EIS,78.2192,3.48996,-0.0006634,251.188,0.0328561,-3.40856,0.032798,0.00195348,1.52419,0.291432,0.00957534,8,0.0318487,3.48996
2,1,Potentiostatic EIS,78.303,3.48997,-0.000656725,223.872,0.0331244,-3.69259,0.0330556,0.00213332,1.39621,0.291776,0.00966491,8,0.0357347,3.48997
2,1,Potentiostatic EIS,78.3915,3.48997,-0.000631856,199.526,0.0334043,-3.87742,0.0333279,0.00225887,1.32522,0.291383,0.00973345,8,0.0400951,3.48997
2,1,Potentiostatic EIS,78.4852,3.48996,-0.000567658,177.828,0.0336695,-4.06225,0.0335849,0.00238516,1.2314,0.290592,0.00978409,8,0.0449874,3.48996
2,1,Potentiostatic EIS,78.5843,3.48997,-0.000561294,158.489,0.0339255,-4.22205,0.0338334,0.00249766,1.11946,0.289507,0.00982167,8,0.0504767,3.48997
2,1,Potentiostatic EIS,78.6902,3.48997,-0.000362418,141.253,0.0342115,-4.31973,0.0341144,0.00257688,1.01375,0.288036,0.00985415,8,0.0566359,3.48997
2,1,Potentiostatic EIS,78.8016,3.48997,-0.000280117,125.892,0.0344768,-4.40831,0.0343748,0.00265001,0.947189,0.286444,0.00987566,8,0.0635464,3.48997
2,1,Potentiostatic EIS,78.9212,3.48997,-0.000497732,112.201,0.0347509,-4.49765,0.0346439,0.00272511,0.887059,0.284629,0.00989113,8,0.0713003,3.48997
2,1,Potentiostatic EIS,79.0509,3.48996,-0.00052785,99.9997,0.035012,-4.52595,0.0349028,0.00276282,0.7772,0.282681,0.00989722,8,0.0800003,3.48996
2,1,Potentiostatic EIS,79.1893,3.48996,-0.000725137,89.1248,0.0353003,-4.53018,0.03519,0.00278816,0.702136,0.280798,0.00991224,8,0.0897617,3.48996
2,1,Potentiostatic EIS,79.3401,3.48996,-0.000888783,79.4325,0.0355468,-4.53646,0.0354354,0.00281151,0.617759,0.278925,0.00991488,8,0.100714,3.48996
2,1,Potentiostatic EIS,79.5041,3.48996,-0.000741467,70.7943,0.0358044,-4.47525,0.0356952,0.00279376,0.578796,0.276988,0.00991738,8,0.113003,3.48996
2,1,Potentiostatic EIS,79.683,3.48996,-0.000317519,63.0956,0.0360612,-4.41618,0.0359541,0.00277673,0.518603,0.27507,0.00991934,8,0.126792,3.48996
2,1,Potentiostatic EIS,79.878,3.48996,-6.85242e-05,56.2341,0.0363148,-4.39093,0.0362082,0.0027803,0.443374,0.266374,0.0096733,8,0.142263,3.48996
2,1,Potentiostatic EIS,80.0919,3.48997,-0.000293757,50.1186,0.0365522,-4.30187,0.0364493,0.00274183,0.402642,0.265426,0.0097019,8,0.159621,3.48997
2,1,Potentiostatic EIS,80.3261,3.48996,-0.000669755,44.6682,0.0367884,-4.20171,0.0366895,0.00269541,0.361139,0.264476,0.00972965,8,0.179098,3.48996
2,1,Potentiostatic EIS,80.5828,3.48995,-0.000902965,39.8106,0.0370119,-4.11469,0.0369165,0.00265572,0.323785,0.263365,0.00974764,8,0.200952,3.48995
2,1,Potentiostatic EIS,80.866,3.48997,-0.000205579,35.4812,0.037222,-3.99447,0.0371316,0.0025929,0.301918,0.262539,0.00977222,8,0.225471,3.48997
2,1,Potentiostatic EIS,81.0081,3.48996,-0.00101712,31.6227,0.0374259,-3.88988,0.0373397,0.00253894,0.311376,0.264267,0.00989052,2,0.0632458,3.48996
2,1,Potentiostatic EIS,81.1533,3.48996,-0.00096961,28.1838,0.0376474,-3.74272,0.0375671,0.00245748,0.267346,0.26331,0.00991294,2,0.0709628,3.48996
2,1,Potentiostatic EIS,81.3162,3.48997,-0.000931467,25.1188,0.0378213,-3.61777,0.0377459,0.00238653,0.249933,0.255159,0.00965049,2,0.0796217,3.48997
2,1,Potentiostatic EIS,81.4971,3.48997,-0.000983029,22.3871,0.038013,-3.49005,0.0379425,0.00231405,0.221556,0.255013,0.00969383,2,0.0893371,3.48997
2,1,Potentiostatic EIS,81.6969,3.48997,-0.000704839,19.9525,0.0382042,-3.34673,0.038139,0.00223029,0.228272,0.255315,0.00975403,2,0.100238,3.48997
2,1,Potentiostatic EIS,81.9194,3.48997,-0.000654635,17.7828,0.0383507,-3.23528,0.0382896,0.00216437,0.1958,0.255637,0.0098039,2,0.112468,3.48997
2,1,Potentiostatic EIS,82.1666,3.48997,-0.000776534,15.8489,0.0385207,-3.09964,0.0384643,0.00208291,0.200803,0.254899,0.00981888,2,0.126192,3.48997
2,1,Potentiostatic EIS,82.4419,3.48996,-0.000913596,14.1253,0.0386546,-2.96725,0.0386028,0.00200096,0.24612,0.254871,0.00985196,2,0.14159,3.48996
2,1,Potentiostatic EIS,82.7484,3.48997,-0.000868815,12.5892,0.0388102,-2.86051,0.0387619,0.00193681,0.179943,0.254485,0.00987662,2,0.158866,3.48997
2,1,Potentiostatic EIS,83.0903,3.48997,-0.000864893,11.2201,0.0389404,-2.72304,0.0388964,0.00184999,0.19469,0.254199,0.00989854,2,0.178251,3.48997
2,1,Potentiostatic EIS,83.4715,3.48996,-0.00129942,9.99996,0.0390396,-2.58234,0.0389999,0.00175893,0.193439,0.253649,0.00990236,2,0.200001,3.48996
2,1,Potentiostatic EIS,83.8969,3.48998,-0.000865725,8.91248,0.0391668,-2.49788,0.0391296,0.00170698,0.215095,0.253235,0.00991841,2,0.224404,3.48998
2,1,Potentiostatic EIS,84.3723,3.48997,-0.00102236,7.94325,0.0392622,-2.35555,0.039229,0.00161369,0.209531,0.252764,0.00992405,2,0.251786,3.48997
2,1,Potentiostatic EIS,84.9027,3.48998,-0.000906354,7.07944,0.0393717,-2.26396,0.039341,0.00155531,0.185017,0.252228,0.00993063,2,0.282508,3.48998
2,1,Potentiostatic EIS,85.4961,3.48997,-0.00115566,6.30955,0.0394592,-2.19008,0.0394304,0.00150793,0.205407,0.251735,0.00993326,2,0.31698,3.48997
2,1,Potentiostatic EIS,86.1603,3.48998,-0.00107099,5.62339,0.0395488,-2.10053,0.0395223,0.00144958,0.177042,0.251361,0.00994105,2,0.355657,3.48998
2,1,Potentiostatic EIS,86.9008,3.48998,-0.00107911,5.01185,0.0396275,-2.01174,0.0396031,0.0013911,0.173606,0.25092,0.00994335,2,0.399054,3.48998
2,1,Potentiostatic EIS,87.73,3.48998,-0.00118544,4.46682,0.0396975,-1.92825,0.039675,0.00133574,0.172201,0.250565,0.00994682,2,0.447745,3.48998
2,1,Potentiostatic EIS,88.6579,3.48998,-0.00125208,3.98106,0.0397684,-1.89885,0.0397465,0.00131773,0.187055,0.250274,0.00995299,2,0.502378,3.48998
2,1,Potentiostatic EIS,89.6974,3.48998,-0.00112028,3.54812,0.0398452,-1.81454,0.0398252,0.00126168,0.192869,0.249838,0.00995485,2,0.563679,3.48998
2,1,Potentiostatic EIS,90.8619,3.48998,-0.00118882,3.16227,0.0399143,-1.78054,0.039895,0.00124019,0.154176,0.249414,0.00995516,2,0.632458,3.48998
2,1,Potentiostatic EIS,92.1671,3.48997,-0.00152081,2.81837,0.0399734,-1.74915,0.0399548,0.00122014,0.189758,0.248962,0.00995187,2,0.70963,3.48997
2,1,Potentiostatic EIS,93.6293,3.48997,-0.00152718,2.51188,0.0400252,-1.70271,0.0400075,0.00118929,0.171495,0.248701,0.0099543,2,0.796217,3.48997
2,1,Potentiostatic EIS,95.2691,3.48998,-0.0014408,2.23872,0.0401013,-1.67279,0.0400843,0.00117062,0.173478,0.248224,0.00995411,2,0.893369,3.48998
2,1,Potentiostatic EIS,97.1065,3.48997,-0.00148619,1.99526,0.0401665,-1.64992,0.0401499,0.0011565,0.192792,0.247846,0.0099551,2,1.00238,3.48997
2,1,Potentiostatic EIS,99.1666,3.48997,-0.00141218,1.77827,0.0402232,-1.65726,0.0402063,0.00116328,0.173429,0.247559,0.0099576,2,1.12469,3.48997
2,1,Potentiostatic EIS,101.476,3.48997,-0.00150717,1.58489,0.0402762,-1.64083,0.0402597,0.00115327,0.162043,0.247207,0.00995652,2,1.26192,3.48997
2,1,Potentiostatic EIS,104.065,3.48998,-0.00155126,1.41253,0.0403368,-1.63274,0.0403204,0.00114931,0.201211,0.247008,0.0099635,2,1.4159,3.48998
2,1,Potentiostatic EIS,106.97,3.48997,-0.00156217,1.25892,0.040397,-1.6563,0.0403801,0.00116763,0.170637,0.246633,0.00996321,2,1.58866,3.48997
2,1,Potentiostatic EIS,110.227,3.48996,-0.00157971,1.12202,0.0404379,-1.6673,0.0404208,0.00117657,0.16473,0.246176,0.00995484,2,1.78251,3.48996
2,1,Potentiostatic EIS,113.878,3.48997,-0.00165783,0.999995,0.0405046,-1.67607,0.0404873,0.00118471,0.177363,0.245769,0.00995479,2,2.00001,3.48997
2,1,Potentiostatic EIS,117.974,3.48997,-0.00154676,0.891248,0.040555,-1.7057,0.040537,0.00120715,0.163045,0.245568,0.00995902,2,2.24404,3.48997
2,1,Potentiostatic EIS,122.568,3.48997,-0.00148901,0.794324,0.0406281,-1.75204,0.0406091,0.00124216,0.155084,0.245289,0.00996561,2,2.51786,3.48997
2,1,Potentiostatic EIS,127.722,3.48996,-0.00165842,0.707944,0.040678,-1.79991,0.040658,0.00127767,0.193888,0.244703,0.00995401,2,2.82508,3.48996
2,1,Potentiostatic EIS,133.501,3.48996,-0.00130494,0.630955,0.0407309,-1.8328,0.0407101,0.00130269,0.161149,0.244556,0.009961,2,3.1698,3.48996
2,1,Potentiostatic EIS,139.987,3.48998,-0.00127087,0.562339,0.0407969,-1.9054,0.0407743,0.00135647,0.161089,0.244347,0.0099686,2,3.55657,3.48998
2,1,Potentiostatic EIS,147.26,3.48997,-0.00166906,0.501186,0.0408767,-1.97435,0.0408524,0.00140829,0.147037,0.243637,0.00995908,2,3.99054,3.48997
2,1,Potentiostatic EIS,155.42,3.48997,-0.00126493,0.446681,0.0409444,-2.02566,0.0409188,0.00144726,0.190674,0.243123,0.00995451,2,4.47747,3.48997
2,1,Potentiostatic EIS,164.574,3.48997,-0.00126635,0.398106,0.0410088,-2.11861,0.0409807,0.00151602,0.212787,0.243062,0.00996766,2,5.02379,3.48997
2,1,Potentiostatic EIS,174.843,3.48996,-0.00129344,0.354812,0.0410853,-2.20707,0.0410549,0.00158224,0.180221,0.242416,0.00995975,2,5.63679,3.48996
2,1,Potentiostatic EIS,186.358,3.48996,-0.00101776,0.316226,0.0411491,-2.29668,0.041116,0.001649,0.157327,0.242044,0.0099599,2,6.32458,3.48996
2,1,Potentiostatic EIS,199.277,3.48996,-0.0011117,0.281837,0.0412149,-2.38463,0.0411792,0.00171485,0.191103,0.241561,0.00995589,2,7.09631,3.48996
2,1,Potentiostatic EIS,213.772,3.48995,-0.000988231,0.251188,0.0412924,-2.51179,0.0412528,0.00180964,0.154078,0.241166,0.00995833,2,7.96218,3.48995
2,1,Potentiostatic EIS,230.035,3.48996,-0.000606124,0.223871,0.0413558,-2.63093,0.0413122,0.00189832,0.186372,0.240717,0.00995501,2,8.9337,3.48996
2,1,Potentiostatic EIS,248.278,3.48995,-0.000934363,0.199525,0.0414581,-2.74273,0.0414106,0.00198383,0.189009,0.240162,0.00995669,2,10.0238,3.48995
2,1,Potentiostatic EIS,268.744,3.48995,-0.00027972,0.177827,0.0416459,-2.86707,0.0415938,0.00208308,0.187373,0.239177,0.00996077,2,11.2469,3.48995
2,1,Potentiostatic EIS,291.714,3.48996,-0.000205712,0.158489,0.0417662,-3.04681,0.0417072,0.00221995,0.196568,0.238614,0.009966,2,12.6192,3.48996
2,1,Potentiostatic EIS,317.479,3.48996,-0.000600214,0.141253,0.0417841,-3.1887,0.0417194,0.00232422,0.168366,0.238333,0.00995849,2,14.159,3.48996
2,1,Potentiostatic EIS,346.391,3.48996,-0.000210181,0.125892,0.0418302,-3.3866,0.0417571,0.00247103,0.169699,0.238131,0.00996103,2,15.8867,3.48996
2,1,Potentiostatic EIS,378.823,3.48996,-0.000540996,0.112201,0.0418502,-3.60447,0.0417675,0.00263106,0.161108,0.238035,0.00996178,2,17.8251,3.48996
2,1,Potentiostatic EIS,415.214,3.48996,-0.000576613,0.0999997,0.0419232,-3.79359,0.0418314,0.00277373,0.18883,0.237658,0.00996338,2,20.0001,3.48996
2,1,Potentiostatic EIS,456.042,3.48995,-0.000199867,0.0891246,0.0419983,-4.02459,0.0418947,0.00294763,0.155335,0.237164,0.00996048,2,22.4405,3.48995
2,1,Potentiostatic EIS,501.842,3.48995,-0.000555566,0.0794325,0.0420564,-4.26697,0.0419398,0.00312916,0.147275,0.236913,0.00996368,2,25.1786,3.48995
2,1,Potentiostatic EIS,553.24,3.48995,-0.000329604,0.0707942,0.0421442,-4.55299,0.0420112,0.00334545,0.184231,0.236356,0.00996105,2,28.2509,3.48995
2,1,Potentiostatic EIS,610.897,3.48995,0.000322336,0.0630955,0.0422806,-4.8405,0.0421298,0.00356773,0.170699,0.235593,0.009961,2,31.698,3.48995
2,1,Potentiostatic EIS,675.586,3.48995,0.00011396,0.0562339,0.0424218,-5.14044,0.0422512,0.00380088,0.162798,0.234834,0.00996206,2,35.5657,3.48995
2,1,Potentiostatic EIS,748.168,3.48995,0.000371783,0.0501185,0.0425701,-5.49078,0.0423748,0.00407335,0.171091,0.234079,0.00996475,2,39.9054,3.48995
2,1,Potentiostatic EIS,820.92,3.48995,4.29463e-05,0.05,0.0425072,-5.48399,0.0423126,0.00406231,0.175755,0.234375,0.00996261,2,40,3.48995