File: Data/P190_04/EIS_08_P190_04_1/3_EIS_08_P190_04_1 20231019 120739.csv
Step number,Repeats,Step name,Elapsed Time  (s),DC Working Electrode (V),DC Current (A),Frequency (Hz),|Z| (Ohms),Phase (deg),Z' (Ohms),-Z" (Ohms),THD (%),Amplitude (A),Amplitude (V),No of Cycles,Duration of Each Frequency (s),IR Compensated DC Working Electrode (V)
3,1,Potentiostatic EIS,821.282,3.48936,0.0153085,1000000,3.55129,89.0106,0.0613237,-3.55076,0.735557,0.00279601,0.00992975,1430,0.00143,3.48936
3,1,Potentiostatic EIS,821.738,3.48936,0.0126199,990832,3.53201,88.8032,0.0737687,-3.53124,0.775948,0.0027925,0.00986335,1435,0.00144828,3.48936
3,1,Potentiostatic EIS,822.193,3.48936,0.0104033,981748.125,3.49511,88.8007,0.0731514,-3.49435,0.719902,0.0028139,0.00983459,1435,0.00146168,3.48936
3,1,Potentiostatic EIS,822.64,3.48937,0.00912421,972747,3.46864,88.7211,0.0774196,-3.46777,0.755157,0.00283559,0.00983565,1430,0.00147006,3.48937
3,1,Potentiostatic EIS,823.094,3.48937,0.00808422,963829,3.43482,88.658,0.0804438,-3.43388,0.61225,0.0028797,0.00989114,1430,0.00148367,3.48937
3,1,Potentiostatic EIS,823.546,3.48937,0.00694227,954993,3.40593,88.7343,0.0752341,-3.4051,0.739347,0.00289058,0.00984503,1425,0.00149216,3.48937
3,1,Potentiostatic EIS,824.002,3.48937,0.00638065,946237,3.37296,88.6581,0.078987,-3.37204,0.760538,0.00291868,0.00984452,1415,0.0014954,3.48937
3,1,Potentiostatic EIS,824.461,3.48936,0.00553362,937562,3.34386,88.6272,0.0801109,-3.3429,0.616794,0.00294417,0.00984493,1405,0.00149857,3.48936
3,1,Potentiostatic EIS,824.91,3.48937,0.00518071,928967,3.31126,88.6601,0.0774318,-3.31035,1.37901,0.00297409,0.00984808,1450,0.00156087,3.48937
3,1,Potentiostatic EIS,825.358,3.48936,0.00441496,920450,3.28304,88.6099,0.079646,-3.28207,0.59075,0.00300535,0.00986677,1440,0.00156445,3.48936
3,1,Potentiostatic EIS,825.803,3.48937,0.00419365,912011,3.25201,88.5613,0.0816507,-3.25099,0.723123,0.00303278,0.00986269,1425,0.00156248,3.48937
3,1,Potentiostatic EIS,826.251,3.48937,0.00361534,903650,3.22318,88.5277,0.0828132,-3.22212,0.613135,0.00306374,0.009875,1415,0.00156587,3.48937
3,1,Potentiostatic EIS,826.703,3.48937,0.0034025,895365.25,3.19122,88.5278,0.081989,-3.19016,0.63354,0.00309487,0.00987628,1405,0.00156919,3.48937
3,1,Potentiostatic EIS,827.155,3.48937,0.00285312,887156,3.1657,88.514,0.0820953,-3.16463,0.722116,0.00311353,0.00985654,1400,0.00157808,3.48937
3,1,Potentiostatic EIS,827.605,3.48936,0.00226159,879023,3.14009,88.5258,0.0807857,-3.13905,2.82576,0.00314039,0.00986117,1395,0.00158699,3.48936
3,1,Potentiostatic EIS,828.054,3.48936,0.00209921,870964,3.11107,88.4987,0.0815076,-3.11,0.646331,0.00318426,0.0099065,1390,0.00159593,3.48936
3,1,Potentiostatic EIS,828.51,3.48935,0.0015785,862979,3.0869,88.4951,0.0810699,-3.08583,0.666193,0.00320583,0.00989601,1390,0.0016107,3.48935
3,1,Potentiostatic EIS,828.96,3.48936,0.00147379,855067.25,3.05807,88.4959,0.0802681,-3.05702,0.633268,0.00324519,0.00992418,1390,0.0016256,3.48936
3,1,Potentiostatic EIS,829.506,3.48934,0.000944816,847228,3.03743,88.2987,0.0901763,-3.03609,0.612968,0.00326254,0.00990998,1390,0.00164064,3.48934
3,1,Potentiostatic EIS,829.95,3.48937,0.0012108,839461,3.01043,88.2254,0.0932273,-3.00899,0.642074,0.00331026,0.00996535,1395,0.00166178,3.48937
3,1,Potentiostatic EIS,830.391,3.48936,0.000712873,831764.375,2.98964,88.2194,0.0928941,-2.9882,0.591197,0.00334152,0.00998987,1400,0.00168317,3.48936
3,1,Potentiostatic EIS,830.834,3.48937,0.000709074,824139,2.96201,88.1699,0.0945968,-2.9605,0.736786,0.00338111,0.0100149,1405,0.00170481,3.48937
3,1,Potentiostatic EIS,831.278,3.48934,0.000235175,816583,2.93543,88.2234,0.0910066,-2.93401,0.746906,0.00340663,0.0100001,1415,0.00173283,3.48934
3,1,Potentiostatic EIS,831.72,3.48936,0.000490359,809097,2.9137,88.2148,0.0907679,-2.91228,0.648444,0.00342945,0.00999225,1420,0.00175504,3.48936
3,1,Potentiostatic EIS,832.163,3.48936,8.69839e-05,801678.625,2.88652,88.1709,0.0921313,-2.88505,0.686873,0.00346924,0.0100141,1430,0.00178376,3.48936
3,1,Potentiostatic EIS,832.608,3.48934,-0.00028001,794329,2.86633,88.1528,0.0923949,-2.86484,0.921668,0.00349799,0.0100264,1445,0.00181915,3.48934
3,1,Potentiostatic EIS,833.054,3.48935,-0.000225045,787046,2.83829,88.1492,0.0916696,-2.83681,0.597136,0.00353051,0.0100206,1295,0.00164539,3.48935
3,1,Potentiostatic EIS,833.503,3.48935,-0.000526484,779830.875,2.80958,88.1791,0.0892752,-2.80816,0.717931,0.00356477,0.0100155,1310,0.00167985,3.48935
3,1,Potentiostatic EIS,833.95,3.48936,-0.000556167,772681.375,2.78418,88.2058,0.0871697,-2.78281,0.700983,0.0035922,0.0100014,1330,0.00172128,3.48936
3,1,Potentiostatic EIS,834.4,3.48935,-0.000750944,765597.375,2.75963,88.2585,0.083865,-2.75835,0.711958,0.00362601,0.0100064,1350,0.00176333,3.48935
3,1,Potentiostatic EIS,834.849,3.48936,-0.000690375,758578,2.73789,88.1774,0.08708,-2.7365,0.53844,0.00365301,0.0100016,1370,0.00180601,3.48936
3,1,Potentiostatic EIS,835.293,3.48933,-0.00113489,751624,2.70865,88.2335,0.0834958,-2.70737,0.603923,0.0037038,0.0100323,1390,0.00184933,3.48933
3,1,Potentiostatic EIS,835.89,3.48936,-0.00101154,744733,2.6748,88.3916,0.0750766,-2.67374,0.625367,0.00370282,0.00990422,1410,0.0018933,3.48936
3,1,Potentiostatic EIS,836.348,3.48935,-0.00126615,737905.125,2.65832,88.4233,0.0731463,-2.65732,0.58359,0.0037329,0.00992327,1435,0.00194469,3.48935
3,1,Potentiostatic EIS,836.808,3.48936,-0.00126544,731140,2.6292,88.3885,0.0739382,-2.62816,0.673219,0.00377897,0.00993577,1310,0.00179172,3.48936
3,1,Potentiostatic EIS,837.269,3.48934,-0.00164748,724437,2.60759,88.4398,0.0709969,-2.60662,0.608023,0.00380551,0.00992316,1340,0.00184971,3.48934
3,1,Potentiostatic EIS,837.732,3.48935,-0.00169932,717795.25,2.58257,88.401,0.0720634,-2.58156,0.715059,0.00384893,0.00994017,1365,0.00190166,3.48935
3,1,Potentiostatic EIS,838.2,3.48934,-0.00196624,711215,2.55863,88.387,0.0720206,-2.55762,0.578655,0.0038739,0.00991187,1395,0.00196143,3.48934
3,1,Potentiostatic EIS,838.666,3.48933,-0.00196879,704694,2.53272,88.4225,0.0697247,-2.53176,0.620291,0.00391121,0.00990621,1425,0.00202215,3.48933
3,1,Potentiostatic EIS,839.127,3.48935,-0.00196829,698233.5,2.5118,88.3773,0.0711268,-2.5108,0.655013,0.00393983,0.00989626,1315,0.00188332,3.48935
3,1,Potentiostatic EIS,839.594,3.48933,-0.00233305,691832,2.49298,88.349,0.0718272,-2.49194,0.630502,0.00398217,0.00992733,1350,0.00195134,3.48933
3,1,Potentiostatic EIS,840.061,3.48934,-0.0020615,685489.375,2.46813,88.2536,0.075219,-2.46698,0.619766,0.00401281,0.00990406,1385,0.00202045,3.48934
3,1,Potentiostatic EIS,840.53,3.48932,-0.00233228,679205,2.44363,88.2623,0.0741014,-2.44251,0.604045,0.00405917,0.0099191,1420,0.00209068,3.48932
3,1,Potentiostatic EIS,840.999,3.48934,-0.00211923,672978,2.42083,88.2043,0.0758572,-2.41964,0.592254,0.00409732,0.00991891,1320,0.00196143,3.48934
3,1,Potentiostatic EIS,841.47,3.48933,-0.00251312,666808,2.40152,88.1342,0.0781888,-2.40025,0.694215,0.00413733,0.00993574,1360,0.00203957,3.48933
3,1,Potentiostatic EIS,841.944,3.48933,-0.00239029,660695,2.38167,88.1646,0.0762806,-2.38045,0.6235,0.00416369,0.00991647,1400,0.00211898,3.48933
3,1,Potentiostatic EIS,842.414,3.48932,-0.00268581,654637.375,2.35937,88.0853,0.0788293,-2.35806,0.679133,0.00421172,0.00993704,1305,0.00199347,3.48932
3,1,Potentiostatic EIS,842.885,3.48933,-0.00243021,648635.625,2.33599,88.055,0.0792835,-2.33465,0.681315,0.00424058,0.00990602,1350,0.00208129,3.48933
3,1,Potentiostatic EIS,843.362,3.48931,-0.00271376,642689,2.31629,87.9546,0.0826728,-2.31482,0.765959,0.00428685,0.0099297,1390,0.00216279,3.48931
3,1,Potentiostatic EIS,843.832,3.48932,-0.00273478,636796.75,2.2931,87.9767,0.0809588,-2.29167,0.627859,0.00433032,0.00992991,1305,0.00204932,3.48932
3,1,Potentiostatic EIS,844.306,3.48931,-0.00304509,630959,2.27216,87.9308,0.0820417,-2.27068,0.681936,0.00437453,0.00993957,1355,0.00214753,3.48931
3,1,Potentiostatic EIS,844.777,3.48931,-0.0028801,625174,2.25369,87.9509,0.0805837,-2.25224,0.682621,0.00440977,0.00993838,1400,0.00223938,3.48931
3,1,Potentiostatic EIS,845.251,3.48931,-0.00315026,619442,2.23181,87.9417,0.0801599,-2.23037,0.621281,0.00446168,0.00995749,1320,0.00213095,3.48931
3,1,Potentiostatic EIS,845.725,3.48931,-0.00331194,613763.25,2.21471,87.9734,0.0783208,-2.21332,0.688184,0.00448953,0.00994311,1370,0.00223213,3.48931
3,1,Potentiostatic EIS,846.207,3.48931,-0.00338885,608136,2.19268,87.9291,0.0792363,-2.19125,0.737086,0.00454098,0.00995689,1420,0.002335,3.48931
3,1,Potentiostatic EIS,846.682,3.48932,-0.00333355,602560.875,2.17017,87.8399,0.0817991,-2.16863,0.628948,0.00456438,0.00990551,1350,0.00224044,3.48932
3,1,Potentiostatic EIS,847.164,3.48931,-0.00350251,597037,2.15453,87.8367,0.0813296,-2.153,0.737378,0.00460187,0.00991491,1405,0.00235329,3.48931
3,1,Potentiostatic EIS,847.643,3.48929,-0.00376466,591562.875,2.13476,87.8847,0.0787965,-2.13331,0.631688,0.00464296,0.00991173,1335,0.00225673,3.48929
3,1,Potentiostatic EIS,848.118,3.4893,-0.00352047,586139,2.11353,87.8828,0.0780825,-2.11208,0.653873,0.00467636,0.0098837,1390,0.00237145,3.4893
3,1,Potentiostatic EIS,848.597,3.4893,-0.00386812,580766,2.09594,87.8135,0.0799663,-2.09441,0.686897,0.00471223,0.00987649,1330,0.00229008,3.4893
3,1,Potentiostatic EIS,849.078,3.4893,-0.00371117,575441.125,2.07616,87.8724,0.0770788,-2.07473,0.661007,0.00475204,0.00986602,1385,0.00240685,3.4893
3,1,Potentiostatic EIS,849.562,3.48929,-0.00402938,570166,2.05734,87.813,0.078509,-2.05584,0.675465,0.00478465,0.00984352,1325,0.00232389,3.48929
3,1,Potentiostatic EIS,850.043,3.4893,-0.0037638,564938.25,2.04003,87.8316,0.0771869,-2.03857,0.682778,0.00482533,0.00984377,1385,0.0024516,3.4893
3,1,Potentiostatic EIS,850.531,3.48929,-0.00400232,559758.875,2.0202,87.799,0.077587,-2.01871,0.668325,0.00486725,0.00983281,1335,0.00238496,3.48929
3,1,Potentiostatic EIS,851.02,3.48929,-0.00382478,554626.875,2.0019,87.8287,0.0758452,-2.00047,0.645985,0.00491666,0.00984236,1395,0.0025152,3.48929
3,1,Potentiostatic EIS,851.506,3.48928,-0.00406642,549542,1.9846,87.9132,0.0722677,-1.98328,0.692895,0.00494039,0.00980495,1345,0.00244749,3.48928
3,1,Potentiostatic EIS,851.992,3.48929,-0.00398754,544504,1.96637,87.9022,0.0719807,-1.96505,0.716596,0.00498746,0.00980724,1410,0.00258951,3.48929
3,1,Potentiostatic EIS,852.48,3.4893,-0.00403858,539512,1.94989,87.8398,0.073497,-1.9485,0.632519,0.00502462,0.00979783,1360,0.0025208,3.4893
3,1,Potentiostatic EIS,852.97,3.48929,-0.00398429,534566,1.93109,87.8897,0.0711094,-1.92978,0.719862,0.00507052,0.00979122,1320,0.00246929,3.48929
3,1,Potentiostatic EIS,853.463,3.48926,-0.00449861,529665,1.91303,87.9143,0.0696229,-1.91176,0.715598,0.00510382,0.00976331,1385,0.00261486,3.48926
3,1,Potentiostatic EIS,853.96,3.4893,-0.00420565,524808.75,1.8939,87.966,0.067221,-1.89271,0.657224,0.00515309,0.00975941,1345,0.00256284,3.4893
3,1,Potentiostatic EIS,854.45,3.48927,-0.00436376,519997.25,1.87914,87.9096,0.0685436,-1.87789,0.644258,0.00519787,0.00976733,1415,0.00272117,3.48927
3,1,Potentiostatic EIS,854.945,3.48929,-0.00399894,515230,1.86429,87.9134,0.0678791,-1.86305,0.631625,0.00523209,0.00975416,1380,0.00267842,3.48929
3,1,Potentiostatic EIS,855.439,3.48927,-0.00449211,510506.25,1.8459,87.971,0.0653548,-1.84475,0.75415,0.00526906,0.00972579,1345,0.00263464,3.48927
3,1,Potentiostatic EIS,855.939,3.48929,-0.00411839,505826,1.83077,87.9084,0.0668193,-1.82955,0.695026,0.00531914,0.00973768,1315,0.00259971,3.48929
3,1,Potentiostatic EIS,856.438,3.48928,-0.00456988,501188,1.81361,87.939,0.0652236,-1.81244,0.697371,0.00535953,0.00971947,1385,0.00276343,3.48928
3,1,Potentiostatic EIS,856.932,3.48927,-0.0045267,496594,1.79713,87.9598,0.063978,-1.79599,0.641662,0.00540592,0.0097158,1355,0.00272859,3.48927
3,1,Potentiostatic EIS,857.432,3.48926,-0.00468839,492041,1.78019,87.8696,0.066178,-1.77896,0.787999,0.0054389,0.00968196,1330,0.00270303,3.48926
3,1,Potentiostatic EIS,857.925,3.48928,-0.00447243,487530,1.76376,87.8266,0.0668872,-1.76249,0.706246,0.00548913,0.0096823,1405,0.00288188,3.48928
3,1,Potentiostatic EIS,858.422,3.48929,-0.00453828,483060,1.74837,87.7539,0.0685208,-1.74703,0.615362,0.00553005,0.00966846,1385,0.00286714,3.48929
3,1,Potentiostatic EIS,858.936,3.48928,-0.00449299,478631,1.73086,87.7169,0.0689528,-1.72948,0.700025,0.00558186,0.00966052,1365,0.00285188,3.48928
3,1,Potentiostatic EIS,859.482,3.48926,-0.0049397,474243,1.71653,87.7168,0.068386,-1.71517,0.719911,0.0058022,0.00995966,1345,0.0028361,3.48926
3,1,Potentiostatic EIS,860.02,3.48925,-0.00491614,469895,1.70079,87.6693,0.0691667,-1.69939,0.618196,0.00586145,0.00996915,1325,0.00281978,3.48925
3,1,Potentiostatic EIS,860.55,3.48926,-0.00507704,465587,1.68459,87.5935,0.0707335,-1.6831,0.732792,0.00590992,0.00995581,1405,0.00301769,3.48926
3,1,Potentiostatic EIS,861.096,3.48926,-0.00490925,461319,1.66987,87.569,0.0708299,-1.66837,0.617707,0.0059602,0.00995276,1395,0.00302394,3.48926
3,1,Potentiostatic EIS,861.627,3.48923,-0.0053104,457090,1.65451,87.586,0.0696889,-1.65304,0.640496,0.00601576,0.00995312,1380,0.0030191,3.48923
3,1,Potentiostatic EIS,862.163,3.48926,-0.00495647,452899,1.63995,87.4847,0.0719711,-1.63837,0.62617,0.00606589,0.0099478,1370,0.00302496,3.48926
3,1,Potentiostatic EIS,862.707,3.48924,-0.0052539,448747,1.62436,87.4743,0.0715823,-1.62278,0.706424,0.00612282,0.00994563,1360,0.00303066,3.48924
3,1,Potentiostatic EIS,863.25,3.48925,-0.00495799,444633,1.60947,87.3979,0.0730699,-1.60781,0.683032,0.00618136,0.00994872,1355,0.00304746,3.48925
3,1,Potentiostatic EIS,863.786,3.48925,-0.0048885,440556,1.59607,87.3924,0.0726137,-1.59442,0.637895,0.00622958,0.00994285,1350,0.00306431,3.48925
3,1,Potentiostatic EIS,864.33,3.48924,-0.00526263,436517,1.58336,87.3684,0.0726986,-1.58169,0.67967,0.00628792,0.00995607,1345,0.00308121,3.48924
3,1,Potentiostatic EIS,864.874,3.48927,-0.004702,432515.25,1.56966,87.3649,0.0721658,-1.568,0.742278,0.00634117,0.00995346,1345,0.00310972,3.48927
3,1,Potentiostatic EIS,865.407,3.48926,-0.00492934,428550,1.55607,87.368,0.0714565,-1.55443,0.666949,0.0063962,0.00995292,1345,0.00313849,3.48926
3,1,Potentiostatic EIS,865.951,3.48925,-0.0048291,424621,1.54009,87.3113,0.0722456,-1.5384,0.67053,0.00645359,0.00993912,1345,0.00316753,3.48925
3,1,Potentiostatic EIS,866.487,3.48925,-0.00504765,420728,1.52833,87.272,0.0727405,-1.5266,0.687764,0.00650944,0.00994855,1350,0.00320872,3.48925
3,1,Potentiostatic EIS,867.03,3.48926,-0.00498273,416871,1.51532,87.2375,0.0730319,-1.51356,0.662609,0.00657551,0.00996398,1355,0.00325041,3.48926
3,1,Potentiostatic EIS,867.578,3.48924,-0.00532307,413049,1.49972,87.2822,0.0711128,-1.49803,0.678446,0.00664809,0.00997028,1360,0.00329259,3.48924
3,1,Potentiostatic EIS,868.121,3.48924,-0.00521432,409262,1.48747,87.2546,0.071246,-1.48576,0.679067,0.00668817,0.00994847,1365,0.00333527,3.48924
3,1,Potentiostatic EIS,868.667,3.48924,-0.00526371,405510,1.47412,87.1864,0.0723594,-1.47235,0.655356,0.00675749,0.00996142,1375,0.00339079,3.48924
3,1,Potentiostatic EIS,869.214,3.48925,-0.00499674,401792,1.46236,87.1991,0.0714582,-1.46061,0.670562,0.00681549,0.00996669,1385,0.00344706,3.48925
3,1,Potentiostatic EIS,869.761,3.48923,-0.00530045,398109,1.44842,87.156,0.0718667,-1.44664,0.720878,0.00686172,0.0099387,1400,0.00351663,3.48923
3,1,Potentiostatic EIS,870.315,3.48924,-0.00531645,394459,1.43544,87.1767,0.0707035,-1.4337,0.721798,0.00694362,0.00996714,1330,0.00337171,3.48924
3,1,Potentiostatic EIS,870.861,3.48925,-0.0051613,390842,1.42328,87.1555,0.0706306,-1.42152,0.674842,0.00699454,0.00995517,1345,0.00344129,3.48925
3,1,Potentiostatic EIS,871.422,3.48924,-0.00551012,387259,1.40908,87.0582,0.0723153,-1.40722,0.671009,0.00706245,0.00995157,1365,0.00352477,3.48924
3,1,Potentiostatic EIS,871.979,3.48924,-0.00521729,383708.625,1.3944,87.0975,0.0706074,-1.39261,0.691402,0.00713297,0.00994622,1380,0.00359648,3.48924
3,1,Potentiostatic EIS,872.536,3.48925,-0.00549088,380191,1.38246,87.1161,0.0695548,-1.38071,0.65073,0.0072014,0.00995564,1400,0.00368236,3.48925
3,1,Potentiostatic EIS,873.095,3.48925,-0.00534393,376705,1.3708,87.0863,0.0696811,-1.36903,0.719091,0.00726127,0.00995379,1345,0.00357043,3.48925
3,1,Potentiostatic EIS,873.66,3.48922,-0.00574148,373252,1.35613,87.1073,0.0684391,-1.3544,0.713116,0.00732234,0.00993005,1365,0.00365705,3.48922
3,1,Potentiostatic EIS,874.22,3.48924,-0.00532444,369830,1.34438,87.0126,0.0700642,-1.34255,0.676615,0.00740077,0.00994944,1390,0.00375849,3.48924
3,1,Potentiostatic EIS,874.783,3.48922,-0.00598476,366439,1.33258,87.051,0.0685564,-1.33081,0.635247,0.00747279,0.00995808,1340,0.00365682,3.48922
3,1,Potentiostatic EIS,875.348,3.48921,-0.00607753,363079,1.31946,87.031,0.0683419,-1.31769,0.716924,0.00752934,0.00993465,1365,0.00375951,3.48921
3,1,Potentiostatic EIS,875.915,3.48921,-0.00577425,359751,1.30826,87.0222,0.0679637,-1.3065,0.711391,0.00759304,0.0099337,1395,0.00387769,3.48921
3,1,Potentiostatic EIS,876.492,3.48922,-0.00595288,356452,1.29595,87.008,0.0676444,-1.29418,0.703143,0.00766508,0.00993356,1350,0.00378732,3.48922
3,1,Potentiostatic EIS,877.068,3.48923,-0.00562107,353185,1.28338,86.9439,0.0684227,-1.28156,0.713238,0.00772097,0.00990896,1380,0.00390731,3.48923
3,1,Potentiostatic EIS,877.647,3.48921,-0.00601929,349946.5,1.27341,86.9601,0.0675297,-1.27162,0.855353,0.00780265,0.00993598,1340,0.00382916,3.48921
3,1,Potentiostatic EIS,878.225,3.48922,-0.00574829,346738,1.26103,86.9338,0.0674513,-1.25922,0.719035,0.00788355,0.00994139,1375,0.00396553,3.48922
3,1,Potentiostatic EIS,878.811,3.48921,-0.00603437,343559,1.25002,86.9105,0.0673716,-1.2482,0.701493,0.00795165,0.00993969,1340,0.00390035,3.48921
3,1,Potentiostatic EIS,879.391,3.48921,-0.00605218,340410,1.23761,86.9424,0.0660133,-1.23585,0.910402,0.00803339,0.00994221,1375,0.00403925,3.48921
3,1,Potentiostatic EIS,879.971,3.48921,-0.00570979,337288.625,1.22653,86.8728,0.0669111,-1.22471,0.724463,0.00810281,0.00993837,1345,0.00398768,3.48921
3,1,Potentiostatic EIS,880.56,3.48922,-0.00601672,334196,1.21617,86.8877,0.0660286,-1.21437,0.624927,0.00817586,0.00994326,1380,0.00412931,3.48922
3,1,Potentiostatic EIS,881.15,3.48922,-0.00589324,331132.5,1.2052,86.8829,0.0655352,-1.20341,0.653926,0.00823459,0.00992432,1355,0.00409202,3.48922
3,1,Potentiostatic EIS,881.746,3.4892,-0.00617062,328097,1.19355,86.8902,0.0647495,-1.19179,0.634462,0.00833114,0.00994359,1395,0.0042518,3.4892
3,1,Potentiostatic EIS,882.338,3.48921,-0.00608026,325089,1.18385,86.8472,0.065111,-1.18206,0.647201,0.00840481,0.00995005,1370,0.00421424,3.48921
3,1,Potentiostatic EIS,882.933,3.4892,-0.0059169,322108.25,1.17209,86.8352,0.064709,-1.1703,0.674101,0.00847132,0.00992914,1345,0.00417561,3.4892
3,1,Potentiostatic EIS,883.531,3.48921,-0.00634864,319155.125,1.16286,86.7925,0.0650642,-1.16104,0.694344,0.008531,0.0099204,1390,0.00435525,3.48921
3,1,Potentiostatic EIS,884.129,3.4892,-0.00599601,316229,1.15178,86.747,0.0653573,-1.14993,0.585084,0.00862381,0.00993274,1370,0.0043323,3.4892
3,1,Potentiostatic EIS,884.73,3.48921,-0.0061688,313329.875,1.14139,86.7229,0.0652479,-1.13953,0.669056,0.00870674,0.00993786,1355,0.00432452,3.48921
3,1,Potentiostatic EIS,885.332,3.48921,-0.00602922,310457,1.13161,86.741,0.0643313,-1.12978,0.689574,0.00876757,0.00992149,1340,0.00431621,3.48921
3,1,Potentiostatic EIS,885.94,3.48922,-0.00595245,307611,1.12219,86.7263,0.0640845,-1.12036,0.66609,0.00885717,0.00993948,1390,0.00451869,3.48922
3,1,Potentiostatic EIS,886.547,3.48919,-0.0064989,304790.875,1.11143,86.6027,0.0658622,-1.10948,0.741937,0.00894484,0.0099416,1375,0.00451129,3.48919
3,1,Potentiostatic EIS,887.158,3.48919,-0.00659892,301997,1.10194,86.6632,0.0641395,-1.10008,0.745276,0.00902356,0.00994347,1365,0.00451992,3.48919
3,1,Potentiostatic EIS,887.771,3.48919,-0.00670395,299228,1.09244,86.5754,0.065257,-1.09049,0.737884,0.0091052,0.00994685,1360,0.00454503,3.48919
3,1,Potentiostatic EIS,888.389,3.48919,-0.00669499,296484.5,1.08272,86.545,0.0652489,-1.08075,0.771217,0.0091903,0.0099505,1350,0.00455336,3.48919
3,1,Potentiostatic EIS,889.008,3.48918,-0.0067177,293766,1.07331,86.4734,0.0660221,-1.07128,0.712907,0.0092612,0.00994015,1345,0.00457847,3.48918
3,1,Potentiostatic EIS,889.63,3.48919,-0.00669643,291073,1.06479,86.4539,0.0658589,-1.06275,0.722074,0.00934283,0.00994814,1340,0.00460366,3.48919
3,1,Potentiostatic EIS,890.256,3.48918,-0.00669686,288405,1.05585,86.4251,0.0658351,-1.05379,0.644752,0.00942863,0.00995522,1340,0.00464625,3.48918
3,1,Potentiostatic EIS,890.884,3.48918,-0.00665345,285760,1.04612,86.3843,0.0659724,-1.04404,0.641823,0.00950565,0.00994407,1340,0.00468924,3.48918
3,1,Potentiostatic EIS,891.515,3.48918,-0.00665464,283141,1.0381,86.4267,0.0647006,-1.03608,0.697626,0.00959486,0.00996041,1340,0.00473263,3.48918
3,1,Potentiostatic EIS,892.153,3.48919,-0.006616,280545,1.02734,86.3617,0.0651917,-1.02527,0.750547,0.00969373,0.00995875,1345,0.00479424,3.48919
3,1,Potentiostatic EIS,892.789,3.48918,-0.00679495,277973,1.0184,86.3625,0.0646115,-1.01635,2.57654,0.00975741,0.00993694,1350,0.00485659,3.48918
3,1,Potentiostatic EIS,893.429,3.48917,-0.0068217,275424,1.0094,86.3093,0.064975,-1.00731,0.767863,0.00987614,0.00996897,1355,0.00491968,3.48917
3,1,Potentiostatic EIS,894.068,3.48918,-0.0064988,272899,1.00109,86.3003,0.0645972,-0.999008,0.684443,0.0099514,0.0099623,1365,0.00500185,3.48918
3,1,Potentiostatic EIS,894.705,3.48918,-0.00693555,270397,0.991484,86.2452,0.0649288,-0.989356,0.773024,0.0100424,0.00995689,1370,0.00506662,3.48918
3,1,Potentiostatic EIS,895.347,3.48917,-0.00671282,267918,0.983923,86.249,0.0643693,-0.981815,0.665804,0.010117,0.00995436,1385,0.00516949,3.48917
3,1,Potentiostatic EIS,895.996,3.48918,-0.00662135,265462,0.974769,86.1798,0.0649443,-0.972603,0.767815,0.0102187,0.00996087,1340,0.0050478,3.48918
3,1,Potentiostatic EIS,896.645,3.48917,-0.00690134,263028,0.964959,86.1545,0.0647157,-0.962787,0.68667,0.0103199,0.0099583,1355,0.00515154,3.48917
3,1,Potentiostatic EIS,897.304,3.4892,-0.00634708,260616.75,0.956543,86.0862,0.0652888,-0.954312,0.729036,0.0104046,0.00995237,1370,0.00525676,3.4892
3,1,Potentiostatic EIS,897.966,3.48918,-0.00660323,258227,0.948446,86.1146,0.0642675,-0.946266,0.765217,0.0105024,0.00996104,1385,0.00536349,3.48918
3,1,Potentiostatic EIS,898.623,3.48915,-0.00713699,255860,0.940464,86.1605,0.0629745,-0.938353,0.665692,0.0105922,0.00996161,1350,0.00527632,3.48915
3,1,Potentiostatic EIS,899.282,3.48917,-0.00677393,253514,0.932273,86.0524,0.0641817,-0.930061,0.750264,0.0107054,0.00998036,1370,0.00540403,3.48917
3,1,Potentiostatic EIS,899.944,3.48917,-0.00679521,251190,0.924716,86.0984,0.062921,-0.922572,0.708739,0.0108065,0.00999297,1340,0.00533461,3.48917
3,1,Potentiostatic EIS,900.611,3.48917,-0.00701335,248887,0.915549,86.0643,0.0628408,-0.91339,0.815688,0.0108941,0.00997413,1365,0.00548441,3.48917
3,1,Potentiostatic EIS,901.276,3.48916,-0.00693025,246605,0.907929,86.0721,0.0621947,-0.905797,0.741225,0.0109802,0.0099693,1385,0.00561626,3.48916
3,1,Potentiostatic EIS,901.95,3.48916,-0.00721681,244344,0.899509,86.0445,0.062049,-0.897366,0.736938,0.0110997,0.00998427,1360,0.00556591,3.48916
3,1,Potentiostatic EIS,902.629,3.48914,-0.0076527,242104,0.892258,86.0947,0.0607698,-0.890186,0.684145,0.0111746,0.00997066,1340,0.00553481,3.48914
3,1,Potentiostatic EIS,903.307,3.48916,-0.00714677,239885,0.883609,85.9989,0.061654,-0.881456,0.704961,0.011274,0.0099618,1365,0.00569023,3.48916
3,1,Potentiostatic EIS,904.014,3.48915,-0.0069918,237685,0.875352,86.0306,0.060595,-0.873252,0.790372,0.0114158,0.00999287,1345,0.00565874,3.48915
3,1,Potentiostatic EIS,904.824,3.48913,-0.007344,235506,0.867542,86.0115,0.0603429,-0.86544,0.750187,0.0114764,0.00995629,1380,0.00585972,3.48913
3,1,Potentiostatic EIS,905.514,3.48916,-0.00730971,233347,0.859534,86.0282,0.0595359,-0.85747,1.51143,0.0115765,0.0099504,1360,0.00582823,3.48916
3,1,Potentiostatic EIS,906.203,3.48915,-0.00701885,231208,0.852637,86.0801,0.0582884,-0.850643,0.724567,0.0116935,0.0099703,1350,0.0058389,3.48915
3,1,Potentiostatic EIS,906.895,3.48914,-0.00728201,229088.125,0.843705,86.0172,0.0586018,-0.841668,0.833483,0.0118081,0.00996261,1380,0.00602388,3.48914
3,1,Potentiostatic EIS,907.594,3.48913,-0.00760262,226988,0.836639,86.052,0.0576034,-0.834654,0.751264,0.0119023,0.00995795,1370,0.00603557,3.48913
3,1,Potentiostatic EIS,908.291,3.48913,-0.00736136,224907,0.828678,86.0551,0.0570102,-0.826715,0.789599,0.0120253,0.00996512,1360,0.00604695,3.48913
3,1,Potentiostatic EIS,908.986,3.48911,-0.0077685,222845,0.82203,86.0028,0.057302,-0.82003,0.83212,0.0121183,0.00996162,1355,0.00608046,3.48911
3,1,Potentiostatic EIS,909.692,3.48912,-0.00770256,220802,0.814823,85.9653,0.057332,-0.812804,0.679454,0.0121938,0.0099358,1350,0.00611408,3.48912
3,1,Potentiostatic EIS,910.405,3.48912,-0.00765415,218777,0.806419,85.9956,0.0563149,-0.80445,0.771446,0.0123187,0.00993405,1345,0.0061478,3.48912
3,1,Potentiostatic EIS,911.124,3.48912,-0.00759972,216771.75,0.799417,85.9733,0.0561356,-0.797444,0.900471,0.0123851,0.00990086,1345,0.00620468,3.48912
3,1,Potentiostatic EIS,911.838,3.48913,-0.00790715,214784,0.792533,85.9283,0.0562736,-0.790533,0.762378,0.0125,0.00990674,1345,0.00626209,3.48913
3,1,Potentiostatic EIS,912.561,3.48911,-0.00811468,212815,0.784517,85.9526,0.0553723,-0.78256,0.772446,0.0126027,0.00988721,1345,0.00632004,3.48911
3,1,Potentiostatic EIS,913.288,3.48912,-0.00787386,210864,0.777095,85.9033,0.0555163,-0.775109,0.770859,0.0126909,0.00986201,1345,0.00637852,3.48912
3,1,Potentiostatic EIS,914.017,3.48911,-0.00793391,208931,0.770633,85.8598,0.0556382,-0.768622,0.776115,0.0127807,0.00984929,1350,0.00646146,3.48911
3,1,Potentiostatic EIS,914.755,3.4891,-0.0080949,207015,0.76277,85.8583,0.0550904,-0.760778,0.767548,0.0128862,0.00982935,1355,0.00654541,3.4891
3,1,Potentiostatic EIS,915.5,3.4891,-0.00809791,205118,0.755994,85.8614,0.05456,-0.754023,0.816221,0.0129948,0.00982394,1365,0.00665472,3.4891
3,1,Potentiostatic EIS,916.238,3.48911,-0.00818721,203237,0.749099,85.9169,0.0533383,-0.747198,0.730626,0.0130774,0.00979634,1375,0.0067655,3.48911
3,1,Potentiostatic EIS,916.978,3.48909,-0.008292,201374,0.742205,85.8001,0.0543566,-0.740211,0.64853,0.0131772,0.00978021,1385,0.00687776,3.48909
3,1,Potentiostatic EIS,917.724,3.48909,-0.00826786,199528,0.734876,85.8489,0.0531949,-0.732948,0.812952,0.0132851,0.009763,1355,0.00679104,3.48909
3,1,Potentiostatic EIS,918.467,3.48911,-0.00799915,197698,0.72966,85.8424,0.0528999,-0.72774,0.7181,0.0133633,0.00975074,1365,0.00690446,3.48911
3,1,Potentiostatic EIS,919.216,3.4891,-0.00800401,195886,0.722583,85.7654,0.0533561,-0.720611,0.839337,0.0134853,0.00974425,1380,0.00704492,3.4891
3,1,Potentiostatic EIS,919.981,3.48909,-0.00799539,194090,0.717371,85.6634,0.0542449,-0.715317,0.803903,0.0135704,0.00973501,1360,0.00700706,3.48909
3,1,Potentiostatic EIS,920.74,3.48909,-0.00832338,192310,0.711122,85.7153,0.0531294,-0.709134,0.869315,0.0136934,0.00973767,1375,0.0071499,3.48909
3,1,Potentiostatic EIS,921.506,3.4891,-0.0081605,190547,0.704638,85.6827,0.0530449,-0.702639,0.77905,0.0137746,0.00970608,1355,0.00711109,3.4891
3,1,Potentiostatic EIS,922.268,3.4891,-0.0079909,188800,0.699057,85.5751,0.0539335,-0.696973,0.796878,0.0138954,0.00971327,1375,0.00728282,3.4891
3,1,Potentiostatic EIS,923.048,3.4891,-0.00830933,187070,0.693133,85.5439,0.0538532,-0.691038,0.858181,0.0139906,0.00969705,1360,0.00727002,3.4891
3,1,Potentiostatic EIS,923.824,3.48909,-0.00830926,185354,0.687192,85.5373,0.0534709,-0.685109,0.830864,0.0141158,0.00970081,1345,0.00725637,3.48909
3,1,Potentiostatic EIS,924.604,3.48909,-0.00846766,183655,0.680445,85.4759,0.053673,-0.678325,0.857621,0.0142342,0.00968604,1370,0.00745963,3.48909
3,1,Potentiostatic EIS,925.388,3.48908,-0.00842352,181971,0.674388,85.4725,0.053235,-0.672283,0.815066,0.0143476,0.00967615,1360,0.0074737,3.48908
3,1,Potentiostatic EIS,926.171,3.48909,-0.00819131,180303,0.669034,85.4728,0.0528089,-0.666946,0.81775,0.014447,0.00966478,1350,0.00748739,3.48909
3,1,Potentiostatic EIS,927.029,3.48908,-0.00844495,178650,0.66399,85.3784,0.0535007,-0.661831,0.853753,0.015033,0.00998176,1380,0.0077246,3.48908
3,1,Potentiostatic EIS,927.902,3.48908,-0.00862984,177012,0.657344,85.3442,0.0533568,-0.655175,0.791219,0.0151282,0.00994442,1375,0.00776783,3.48908
3,1,Potentiostatic EIS,928.78,3.48906,-0.00864767,175389.375,0.652092,85.3027,0.0534004,-0.649902,0.802798,0.0152763,0.00996156,1370,0.00781119,3.48906
3,1,Potentiostatic EIS,929.658,3.48906,-0.00875735,173781,0.646444,85.2238,0.0538252,-0.644199,0.824618,0.015438,0.00997979,1365,0.0078547,3.48906
3,1,Potentiostatic EIS,930.537,3.48907,-0.00855614,172188,0.640431,85.192,0.0536788,-0.638177,0.81267,0.0155739,0.00997402,1365,0.00792738,3.48907
3,1,Potentiostatic EIS,931.423,3.48908,-0.00828594,170609,0.633839,85.1824,0.0532318,-0.6316,0.768971,0.0156975,0.00994966,1365,0.00800073,3.48908
3,1,Potentiostatic EIS,932.319,3.48908,-0.00817855,169045,0.628483,85.1963,0.0526308,-0.626275,0.920078,0.0158524,0.00996294,1365,0.00807476,3.48908
3,1,Potentiostatic EIS,933.216,3.48908,-0.0081435,167495,0.623203,85.1651,0.0525267,-0.620986,0.871332,0.0159847,0.00996176,1370,0.00817932,3.48908
3,1,Potentiostatic EIS,934.115,3.48907,-0.00866447,165960,0.618107,85.0721,0.0530965,-0.615822,0.729423,0.0161105,0.00995806,1375,0.00828513,3.48907
3,1,Potentiostatic EIS,935.019,3.48907,-0.008411,164438,0.612517,84.9922,0.0534675,-0.610179,0.91446,0.0162563,0.00995729,1350,0.00820976,3.48907
3,1,Potentiostatic EIS,935.922,3.48906,-0.00858422,162930.875,0.606658,84.9417,0.0534887,-0.604295,0.816733,0.0164276,0.00996595,1355,0.00831641,3.48906
3,1,Potentiostatic EIS,936.836,3.48905,-0.00859637,161437,0.601655,85.0056,0.0523789,-0.599371,0.80554,0.0165417,0.0099524,1365,0.00845531,3.48905
3,1,Potentiostatic EIS,937.747,3.48904,-0.00903886,159957,0.596441,84.9654,0.0523419,-0.59414,0.840118,0.0167142,0.00996903,1380,0.00862732,3.48904
3,1,Potentiostatic EIS,938.671,3.48905,-0.00878655,158491,0.590948,84.9125,0.052404,-0.58862,0.783072,0.0168536,0.00995959,1360,0.00858096,3.48905
3,1,Potentiostatic EIS,939.598,3.48906,-0.00849364,157037,0.5855,84.8976,0.0520717,-0.58318,0.8321,0.0170187,0.00996445,1375,0.00875587,3.48906
3,1,Potentiostatic EIS,940.524,3.48905,-0.00834605,155598,0.580964,84.918,0.051463,-0.578681,0.852429,0.0171437,0.00995989,1360,0.00874049,3.48905
3,1,Potentiostatic EIS,941.458,3.48905,-0.00876484,154171,0.574938,84.855,0.0515587,-0.572622,0.759391,0.0173112,0.0099529,1375,0.00891865,3.48905
3,1,Potentiostatic EIS,942.41,3.48904,-0.00913492,152758,0.570521,84.8506,0.0512059,-0.568218,0.901083,0.0174422,0.00995116,1360,0.00890298,3.48904
3,1,Potentiostatic EIS,943.352,3.48905,-0.00861367,151357,0.565327,84.8775,0.0504756,-0.563069,0.915788,0.0176359,0.00997001,1350,0.00891929,3.48905
3,1,Potentiostatic EIS,944.313,3.48904,-0.00882227,149970,0.560114,84.9195,0.0496009,-0.557913,0.877636,0.0177938,0.00996657,1375,0.00916852,3.48904
3,1,Potentiostatic EIS,945.268,3.48903,-0.00871526,148594.75,0.555061,84.8757,0.0495761,-0.552842,0.856249,0.017934,0.00995445,1365,0.00918606,3.48903
3,1,Potentiostatic EIS,946.225,3.48903,-0.00905526,147232,0.550536,84.9108,0.0488362,-0.548365,0.872865,0.0180736,0.00995016,1360,0.0092371,3.48903
3,1,Potentiostatic EIS,947.193,3.48904,-0.00889485,145883,0.545366,84.8467,0.0489849,-0.543161,0.900695,0.0183015,0.00998105,1355,0.00928829,3.48904
3,1,Potentiostatic EIS,948.172,3.48904,-0.0088254,144545,0.540552,84.8637,0.048393,-0.538381,0.871696,0.0184455,0.00997077,1355,0.00937423,3.48904
3,1,Potentiostatic EIS,949.154,3.48903,-0.00898028,143220,0.536233,84.8075,0.0485301,-0.534033,0.942892,0.0186468,0.00999903,1355,0.00946098,3.48903
3,1,Potentiostatic EIS,950.138,3.48902,-0.00910158,141907,0.530514,84.7853,0.0482173,-0.528318,0.999149,0.0187727,0.0099592,1355,0.00954851,3.48902
3,1,Potentiostatic EIS,951.135,3.48902,-0.00922927,140606,0.526406,84.826,0.0474713,-0.524262,0.91396,0.0189552,0.00997814,1355,0.00963687,3.48902
3,1,Potentiostatic EIS,952.14,3.48903,-0.00905571,139317,0.522138,84.7671,0.0476217,-0.519962,0.857085,0.0191027,0.00997426,1360,0.00976192,3.48903
3,1,Potentiostatic EIS,953.14,3.48902,-0.00916176,138040,0.518293,84.6478,0.0483452,-0.516033,1.02472,0.0192581,0.00998132,1365,0.00988847,3.48902
3,1,Potentiostatic EIS,954.147,3.489,-0.00946501,136774,0.513688,84.6386,0.0479976,-0.511441,0.853034,0.0194327,0.00998236,1375,0.0100531,3.489
3,1,Potentiostatic EIS,955.168,3.48901,-0.0092605,135520,0.508465,84.5648,0.0481616,-0.506179,0.854434,0.019617,0.00997457,1355,0.00999852,3.48901
3,1,Potentiostatic EIS,956.189,3.489,-0.00961244,134277.625,0.503986,84.5118,0.0482012,-0.501676,1.02523,0.0198089,0.00998341,1365,0.0101655,3.489
3,1,Potentiostatic EIS,957.214,3.489,-0.00951206,133047,0.499615,84.4967,0.0479142,-0.497312,0.846625,0.0199568,0.00997071,1350,0.0101468,3.489
3,1,Potentiostatic EIS,958.247,3.48899,-0.00952757,131826.75,0.495451,84.456,0.0478659,-0.493134,1.14695,0.0201488,0.00998278,1365,0.0103545,3.48899
3,1,Potentiostatic EIS,959.285,3.489,-0.00939184,130618,0.490886,84.4753,0.0472603,-0.488606,0.924954,0.0203251,0.00997732,1350,0.0103355,3.489
3,1,Potentiostatic EIS,960.331,3.48899,-0.00965588,129421,0.486807,84.3936,0.0475578,-0.484478,0.987049,0.0204957,0.00997744,1365,0.010547,3.48899
3,1,Potentiostatic EIS,961.376,3.48896,-0.009785,128234,0.482334,84.2923,0.0479695,-0.479943,0.98965,0.0207093,0.00998878,1360,0.0106056,3.48896
3,1,Potentiostatic EIS,962.429,3.48896,-0.00982088,127058,0.478752,84.2153,0.0482537,-0.476314,0.966264,0.0208529,0.00998335,1350,0.010625,3.48896
3,1,Potentiostatic EIS,963.488,3.48896,-0.0102954,125894,0.474644,84.2133,0.0478565,-0.472225,0.941674,0.0210278,0.00998069,1370,0.0108822,3.48896
3,1,Potentiostatic EIS,964.559,3.48897,-0.00982259,124739,0.469513,84.1909,0.0475215,-0.467102,0.928878,0.0212729,0.00998792,1370,0.0109829,3.48897
3,1,Potentiostatic EIS,965.629,3.48896,-0.00984909,123596,0.46609,84.0611,0.0482251,-0.463589,0.916719,0.0214394,0.00999272,1365,0.0110441,3.48896
3,1,Potentiostatic EIS,966.702,3.48895,-0.0104456,122463,0.461324,84.136,0.0471319,-0.45891,1.00821,0.0216389,0.00998254,1365,0.0111463,3.48895
3,1,Potentiostatic EIS,967.884,3.48893,-0.0105349,121340,0.457974,84.0348,0.0475946,-0.455494,0.946625,0.0218211,0.00999352,1370,0.0112906,3.48893
3,1,Potentiostatic EIS,968.972,3.48896,-0.0100734,120228,0.453822,83.9939,0.0474853,-0.451331,0.915546,0.0220472,0.0100055,1370,0.0113951,3.48896
3,1,Potentiostatic EIS,970.211,3.48896,-0.00993733,119125,0.44988,83.9488,0.0474249,-0.447373,0.985912,0.0221847,0.00998045,1375,0.0115425,3.48896
3,1,Potentiostatic EIS,971.318,3.48895,-0.00994962,118033.125,0.44551,83.9566,0.0469042,-0.443034,0.953657,0.0224207,0.00998865,1355,0.0114798,3.48895
3,1,Potentiostatic EIS,972.424,3.48894,-0.0102743,116951,0.441568,83.8936,0.0469721,-0.439063,0.885263,0.0226006,0.0099797,1365,0.0116716,3.48894
3,1,Potentiostatic EIS,973.551,3.48895,-0.0102187,115879,0.437419,83.8537,0.0468332,-0.434905,1.00411,0.0228296,0.00998614,1375,0.0118658,3.48895
3,1,Potentiostatic EIS,974.675,3.48896,-0.00988336,114816,0.433788,83.8296,0.0466262,-0.431275,1.02119,0.0230298,0.00999005,1360,0.011845,3.48896
3,1,Potentiostatic EIS,975.807,3.48895,-0.0104702,113763.75,0.429316,83.7627,0.0466435,-0.426775,0.972281,0.0232457,0.00997977,1370,0.0120425,3.48895
3,1,Potentiostatic EIS,976.946,3.48892,-0.0107113,112721,0.425838,83.7585,0.0462968,-0.423314,1.3563,0.0234761,0.00999698,1365,0.0121096,3.48892
3,1,Potentiostatic EIS,978.09,3.48894,-0.0106571,111687,0.422132,83.6836,0.0464422,-0.419569,0.908935,0.023665,0.00998976,1355,0.0121321,3.48894
3,1,Potentiostatic EIS,979.245,3.48894,-0.0103735,110663,0.418205,83.7462,0.045556,-0.415717,0.936331,0.0238872,0.00998975,1370,0.0123799,3.48894
3,1,Potentiostatic EIS,980.405,3.48893,-0.010737,109649,0.414534,83.6272,0.0460123,-0.411972,0.999774,0.0240635,0.00997512,1365,0.0124488,3.48893
3,1,Potentiostatic EIS,981.573,3.48892,-0.0108905,108644,0.411194,83.6776,0.0452816,-0.408693,0.955124,0.0243136,0.00999769,1365,0.012564,3.48892
3,1,Potentiostatic EIS,982.749,3.48892,-0.0111839,107647,0.407285,83.5745,0.0455797,-0.404726,1.10449,0.0245192,0.00998628,1365,0.0126803,3.48892
3,1,Potentiostatic EIS,983.928,3.4889,-0.0111081,106661,0.403657,83.6026,0.0449767,-0.401143,1.10724,0.0247581,0.00999378,1365,0.0127976,3.4889
3,1,Potentiostatic EIS,985.115,3.48891,-0.0109782,105683,0.399882,83.5365,0.0450149,-0.397341,1.07408,0.0249883,0.00999236,1365,0.012916,3.48891
3,1,Potentiostatic EIS,986.315,3.48892,-0.010864,104714,0.396239,83.4612,0.0451222,-0.393661,1.03622,0.0251777,0.0099764,1370,0.0130833,3.48892
3,1,Potentiostatic EIS,987.517,3.48894,-0.0105394,103754,0.392641,83.4393,0.0448618,-0.39007,1.04925,0.0253944,0.00997092,1355,0.0130598,3.48894
3,1,Potentiostatic EIS,988.727,3.48892,-0.0104334,102803,0.389156,83.4709,0.0442499,-0.386632,2.16371,0.0256204,0.00997031,1360,0.0132292,3.48892
3,1,Potentiostatic EIS,989.939,3.4889,-0.0111448,101860,0.385425,83.403,0.0442793,-0.382873,1.13599,0.0258752,0.00997298,1370,0.0134498,3.4889
3,1,Potentiostatic EIS,991.169,3.48891,-0.0109076,100926,0.381995,83.401,0.0438988,-0.379464,1.08879,0.0260106,0.00993596,1360,0.0134752,3.48891
3,1,Potentiostatic EIS,992.408,3.48889,-0.0111957,100001,0.378929,83.3705,0.0437466,-0.376395,1.3079,0.0262816,0.00995886,1370,0.0136999,3.48889
3,1,Potentiostatic EIS,993.545,3.48888,-0.011245,99084.2,0.375458,83.277,0.0439546,-0.372877,0.939892,0.0265302,0.00996098,1360,0.0137257,3.48888
3,1,Potentiostatic EIS,994.686,3.48889,-0.0111159,98175.7,0.371948,83.2697,0.0435908,-0.369385,1.15763,0.0267987,0.00996771,1355,0.0138018,3.48889
3,1,Potentiostatic EIS,995.838,3.48887,-0.011353,97275.6,0.36857,83.2702,0.0431914,-0.366031,1.03837,0.027059,0.00997326,1370,0.0140837,3.48887
3,1,Potentiostatic EIS,996.995,3.48888,-0.0112659,96383.8,0.365771,83.1724,0.0434836,-0.363177,1.1685,0.0272482,0.00996664,1370,0.014214,3.48888
3,1,Potentiostatic EIS,998.162,3.48887,-0.0112865,95500.1,0.362984,83.1056,0.0435725,-0.36036,1.09337,0.0274662,0.0099698,1370,0.0143455,3.48887
3,1,Potentiostatic EIS,999.342,3.48887,-0.0112879,94624.6,0.359586,83.1201,0.0430743,-0.356996,1.09106,0.0277591,0.00998178,1370,0.0144783,3.48887
3,1,Potentiostatic EIS,1000.52,3.48887,-0.0112771,93757.1,0.3567,83.0123,0.0433949,-0.354051,1.03048,0.027918,0.00995838,1370,0.0146122,3.48887
3,1,Potentiostatic EIS,1001.71,3.48886,-0.011384,92897.6,0.353226,83.0316,0.042854,-0.350617,1.13054,0.0282854,0.00999116,1355,0.014586,3.48886
3,1,Potentiostatic EIS,1002.91,3.48886,-0.0116375,92045.9,0.35033,83.0031,0.0426756,-0.347721,1.22645,0.02849,0.00998091,1365,0.0148296,3.48886
3,1,Potentiostatic EIS,1004.11,3.48887,-0.0111946,91202,0.347333,82.9281,0.042762,-0.34469,1.1746,0.028715,0.00997367,1370,0.0150216,3.48887
3,1,Potentiostatic EIS,1005.33,3.48888,-0.0109157,90365.9,0.344103,82.9,0.0425316,-0.341464,1.0906,0.0290297,0.00998923,1360,0.0150499,3.48888
3,1,Potentiostatic EIS,1006.56,3.48888,-0.0106218,89537.4,0.341287,82.82,0.0426563,-0.338611,1.0642,0.0292741,0.00999088,1370,0.0153009,3.48888
3,1,Potentiostatic EIS,1007.79,3.48887,-0.0107557,88716.5,0.338049,82.8744,0.041933,-0.335438,1.23718,0.0295531,0.00999039,1365,0.0153861,3.48887
3,1,Potentiostatic EIS,1009.03,3.48884,-0.0113352,87903.1,0.335152,82.7442,0.0423295,-0.332468,1.09096,0.0298277,0.00999685,1360,0.0154716,3.48884
3,1,Potentiostatic EIS,1010.27,3.48887,-0.0109257,87097.2,0.332101,82.7217,0.0420738,-0.329425,1.16298,0.0300723,0.00998703,1355,0.0155573,3.48887
3,1,Potentiostatic EIS,1011.53,3.48886,-0.0108714,86298.7,0.329114,82.6742,0.0419655,-0.326427,1.12697,0.0303947,0.0100033,1355,0.0157013,3.48886
3,1,Potentiostatic EIS,1012.79,3.48884,-0.0114525,85507.5,0.326198,82.6137,0.0419354,-0.323491,1.0795,0.0306653,0.010003,1355,0.0158466,3.48884
3,1,Potentiostatic EIS,1014.06,3.48883,-0.0116038,84723.625,0.323727,82.5943,0.0417265,-0.321027,1.2585,0.0308642,0.00999162,1355,0.0159932,3.48883
3,1,Potentiostatic EIS,1015.33,3.48885,-0.0113783,83946.8,0.32082,82.5307,0.0417049,-0.318098,1.17111,0.0310915,0.00997479,1360,0.0162007,3.48885
3,1,Potentiostatic EIS,1016.62,3.48886,-0.0110719,83177.3,0.317962,82.511,0.041442,-0.315249,1.15437,0.031425,0.00999196,1365,0.0164107,3.48886
3,1,Potentiostatic EIS,1017.92,3.48884,-0.0117133,82414.7,0.315257,82.4017,0.0416853,-0.312489,1.06176,0.0316812,0.00998776,1370,0.0166233,3.48884
3,1,Potentiostatic EIS,1019.22,3.48884,-0.0113467,81659.1,0.312563,82.3187,0.0417781,-0.309759,1.1658,0.0319658,0.00999135,1360,0.0166546,3.48884
3,1,Potentiostatic EIS,1020.53,3.48885,-0.011103,80910.4,0.309527,82.2205,0.041898,-0.306678,1.1014,0.0322477,0.00998152,1355,0.0167469,3.48885
3,1,Potentiostatic EIS,1021.85,3.48882,-0.0116595,80168.6,0.307254,82.1838,0.0417851,-0.304399,1.12822,0.0325283,0.00999444,1365,0.0170266,3.48882
3,1,Potentiostatic EIS,1023.19,3.48882,-0.0116428,79433.6,0.304387,82.1827,0.041401,-0.301558,1.28589,0.0328087,0.00998653,1365,0.0171842,3.48882
3,1,Potentiostatic EIS,1024.52,3.4888,-0.0118366,78705.4,0.301958,82.0709,0.0416542,-0.299071,1.15314,0.0330564,0.00998167,1360,0.0172796,3.4888
3,1,Potentiostatic EIS,1025.87,3.48883,-0.0114452,77983.8,0.299219,82.0243,0.0415177,-0.296325,1.08946,0.0334179,0.00999925,1360,0.0174395,3.48883
3,1,Potentiostatic EIS,1027.23,3.48879,-0.0120955,77268.9,0.296428,81.97,0.0414084,-0.293522,1.2392,0.0336559,0.00997658,1360,0.0176009,3.48879
3,1,Potentiostatic EIS,1028.6,3.48882,-0.0114236,76560.5,0.293854,81.9945,0.0409245,-0.290991,1.23788,0.0340137,0.00999507,1365,0.017829,3.48882
3,1,Potentiostatic EIS,1029.98,3.48882,-0.0116442,75858.6,0.291328,81.9054,0.0410213,-0.288425,1.14863,0.0342462,0.0099769,1370,0.0180599,3.48882
3,1,Potentiostatic EIS,1031.36,3.48882,-0.0113098,75163,0.288588,81.8814,0.0407549,-0.285696,1.15359,0.0345737,0.00997758,1360,0.018094,3.48882
3,1,Potentiostatic EIS,1032.76,3.48883,-0.0113785,74474,0.286044,81.8009,0.040794,-0.283121,1.17656,0.0349341,0.00999272,1365,0.0183286,3.48883
3,1,Potentiostatic EIS,1034.16,3.4888,-0.0121569,73791.2,0.283359,81.7726,0.0405493,-0.280443,1.25142,0.0352744,0.00999535,1360,0.0184304,3.4888
3,1,Potentiostatic EIS,1035.57,3.48881,-0.01169,73114.7,0.280801,81.7824,0.0401358,-0.277917,1.30203,0.0354908,0.00996584,1355,0.0185325,3.48881
3,1,Potentiostatic EIS,1036.99,3.4888,-0.0119289,72444.3,0.278346,81.7375,0.0400007,-0.275457,1.24118,0.0358272,0.00997236,1370,0.0189111,3.4888
3,1,Potentiostatic EIS,1038.42,3.48883,-0.0114452,71780.2,0.27605,81.6378,0.0401462,-0.273115,1.14681,0.0361898,0.00999021,1365,0.0190164,3.48883
3,1,Potentiostatic EIS,1039.87,3.48878,-0.012051,71122.125,0.273746,81.7029,0.0395033,-0.270881,1.19145,0.0363964,0.00996339,1365,0.0191923,3.48878
3,1,Potentiostatic EIS,1041.32,3.48879,-0.0117715,70470.1,0.271014,81.5825,0.0396726,-0.268094,1.21304,0.036908,0.0100026,1370,0.0194409,3.48879
3,1,Potentiostatic EIS,1042.79,3.48881,-0.0116118,69824,0.269103,81.4836,0.0398521,-0.266136,1.17772,0.0371195,0.009989,1360,0.0194776,3.48881
3,1,Potentiostatic EIS,1044.26,3.48881,-0.011512,69183.9,0.266161,81.4607,0.0395216,-0.26321,1.22037,0.0374116,0.00995751,1365,0.01973,3.48881
3,1,Potentiostatic EIS,1045.74,3.48879,-0.0117602,68549.5,0.264018,81.4328,0.0393305,-0.261072,1.25716,0.0377535,0.00996763,1355,0.0197667,3.48879
3,1,Potentiostatic EIS,1047.24,3.48878,-0.0123083,67921.1,0.261965,81.4208,0.039079,-0.259033,1.28745,0.0380833,0.00997649,1365,0.0200969,3.48878
3,1,Potentiostatic EIS,1048.75,3.48876,-0.0121659,67298.4,0.259395,81.3761,0.0388956,-0.256463,1.22111,0.0384747,0.00998017,1360,0.0202085,3.48876
3,1,Potentiostatic EIS,1050.26,3.48875,-0.0120217,66681.4,0.25698,81.3035,0.0388554,-0.254025,1.19037,0.0387794,0.00996555,1360,0.0203955,3.48875
3,1,Potentiostatic EIS,1050.75,3.48879,-0.0123485,66070.1,0.254719,81.2414,0.0387864,-0.251749,1.26672,0.0391959,0.00998395,1350,0.0204329,3.48879
3,1,Potentiostatic EIS,1051.25,3.48876,-0.0122649,65464.3,0.25286,81.2893,0.0382944,-0.249943,1.23495,0.0394255,0.00996914,1340,0.0204692,3.48876
3,1,Potentiostatic EIS,1051.74,3.48877,-0.0121809,64864.2,0.250385,81.1791,0.0383958,-0.247424,1.32521,0.0398245,0.0099715,1325,0.0204273,3.48877
3,1,Potentiostatic EIS,1052.24,3.48875,-0.0124393,64269.5,0.248026,81.1713,0.038067,-0.245087,1.22527,0.0402318,0.00997858,1315,0.0204607,3.48875
3,1,Potentiostatic EIS,1052.73,3.48873,-0.012845,63680.3,0.245856,81.0879,0.0380876,-0.242887,1.31366,0.0405613,0.00997225,1300,0.0204145,3.48873
3,1,Potentiostatic EIS,1053.23,3.48876,-0.0125213,63096.5,0.24365,81.0638,0.0378474,-0.240693,1.336,0.0409188,0.00996988,1290,0.0204449,3.48876
3,1,Potentiostatic EIS,1053.73,3.48876,-0.0124841,62518,0.241791,80.9382,0.038082,-0.238773,1.2628,0.041235,0.00997024,1280,0.0204741,3.48876
3,1,Potentiostatic EIS,1054.22,3.48876,-0.0125198,61944.8,0.239586,80.9,0.0378925,-0.23657,1.3152,0.0417717,0.0100079,1265,0.0204214,3.48876
3,1,Potentiostatic EIS,1054.72,3.48877,-0.0125543,61377,0.2376,80.8651,0.0377213,-0.234587,1.29029,0.0420284,0.00998597,1255,0.0204474,3.48877
3,1,Potentiostatic EIS,1055.21,3.48877,-0.0118524,60814.2,0.235713,80.7075,0.0380618,-0.23262,1.19403,0.04226,0.00996123,1245,0.0204722,3.48877
3,1,Potentiostatic EIS,1055.72,3.48878,-0.0124097,60256.7,0.233392,80.7007,0.0377143,-0.230324,1.35248,0.0426833,0.00996193,1230,0.0204127,3.48878
3,1,Potentiostatic EIS,1056.21,3.48876,-0.0122197,59704.2,0.231723,80.6011,0.0378419,-0.228613,1.31177,0.0430643,0.00997902,1220,0.0204341,3.48876
3,1,Potentiostatic EIS,1056.71,3.48876,-0.0126033,59156.9,0.229881,80.5811,0.0376201,-0.226782,1.36983,0.0434359,0.0099851,1210,0.0204541,3.48876
3,1,Potentiostatic EIS,1057.21,3.48876,-0.0125967,58614.5,0.227824,80.5255,0.0375016,-0.224716,1.3623,0.0437776,0.00997358,1200,0.0204728,3.48876
3,1,Potentiostatic EIS,1057.7,3.4887,-0.0126152,58077.1,0.22584,80.4557,0.0374466,-0.222713,1.44999,0.0441621,0.00997357,1185,0.0204039,3.4887
3,1,Potentiostatic EIS,1058.2,3.48872,-0.0129255,57544.7,0.224098,80.3279,0.0376506,-0.220913,1.40299,0.04458,0.00999037,1175,0.0204189,3.48872
3,1,Potentiostatic EIS,1058.7,3.48873,-0.0133739,57017.1,0.222127,80.2846,0.0374848,-0.218941,1.32838,0.0449699,0.00998904,1165,0.0204325,3.48873
3,1,Potentiostatic EIS,1059.19,3.48873,-0.0134429,56494.4,0.220155,80.1438,0.0376853,-0.216905,1.36397,0.0453955,0.00999404,1155,0.0204445,3.48873
3,1,Potentiostatic EIS,1059.69,3.48871,-0.0129661,55976.4,0.218317,80.0948,0.0375547,-0.215063,1.37482,0.0456988,0.00997677,1145,0.020455,3.48871
3,1,Potentiostatic EIS,1060.18,3.48873,-0.0130976,55463.2,0.216614,80.069,0.0373576,-0.213368,1.3063,0.0461098,0.00998799,1135,0.020464,3.48873
3,1,Potentiostatic EIS,1060.69,3.48872,-0.0135859,54954.7,0.214419,80.0262,0.0371367,-0.211178,1.41421,0.0465732,0.00998621,1125,0.0204714,3.48872
3,1,Potentiostatic EIS,1061.18,3.48866,-0.0139941,54450.9,0.212575,79.8972,0.0372886,-0.209279,1.32285,0.0469414,0.00997856,1115,0.0204772,3.48866
3,1,Potentiostatic EIS,1061.68,3.48869,-0.0132966,53951.7,0.210768,79.8133,0.0372757,-0.207446,1.40717,0.0473598,0.00998194,1100,0.0203886,3.48869
3,1,Potentiostatic EIS,1062.17,3.48868,-0.0138661,53457.1,0.20871,79.7924,0.0369864,-0.205406,1.44525,0.0478461,0.00998592,1090,0.0203902,3.48868
3,1,Potentiostatic EIS,1062.67,3.48871,-0.013258,52967,0.206805,79.7314,0.0368657,-0.203493,1.45112,0.0481047,0.00994829,1080,0.02039,3.48871
3,1,Potentiostatic EIS,1063.16,3.48866,-0.0139272,52481.4,0.204965,79.6537,0.0368112,-0.201632,1.27717,0.0485805,0.00995732,1070,0.0203882,3.48866
3,1,Potentiostatic EIS,1063.66,3.4887,-0.0136484,52000.2,0.203237,79.6033,0.0366766,-0.199901,1.4288,0.0490515,0.0099691,1060,0.0203845,3.4887
3,1,Potentiostatic EIS,1064.16,3.48873,-0.0139044,51523.5,0.201384,79.5309,0.0365926,-0.198032,1.38257,0.0494903,0.00996661,1055,0.0204761,3.48873
3,1,Potentiostatic EIS,1064.66,3.48865,-0.014225,51051.1,0.19948,79.5392,0.036218,-0.196164,1.42046,0.0499504,0.0099641,1045,0.0204697,3.48865
3,1,Potentiostatic EIS,1065.16,3.48864,-0.0146696,50583.1,0.197554,79.3969,0.0363508,-0.194181,1.38628,0.050411,0.00995903,1035,0.0204614,3.48864
3,1,Potentiostatic EIS,1065.66,3.48868,-0.0139097,50119.3,0.195161,79.1284,0.0368092,-0.191659,1.45969,0.0509128,0.00993812,1025,0.0204512,3.48868
3,1,Potentiostatic EIS,1065.91,3.48867,-0.0138089,50000,0.195685,79.6528,0.0351474,-0.192502,1.41899,0.0503839,0.00986227,1020,0.0204,3.48867