File: Data/P190/P190_04/EIS_08_P190_04_5/2_EIS_08_P190_04_5 20231019 145737.csv
Step number,Repeats,Step name,Elapsed Time  (s),DC Working Electrode (V),DC Current (A),Frequency (Hz),|Z| (Ohms),Phase (deg),Z' (Ohms),-Z" (Ohms),THD (%),Amplitude (A),Amplitude (V),No of Cycles,Duration of Each Frequency (s),IR Compensated DC Working Electrode (V)
2,1,Potentiostatic EIS,60.2988,3.48634,-0.0140647,1000000,2.83486,87.5797,0.119714,-2.83233,1.00598,0.00350832,0.00994562,1430,0.00143,3.48634
2,1,Potentiostatic EIS,60.5289,3.48632,-0.0149532,891251,2.53514,87.2286,0.122575,-2.53218,0.851405,0.00388722,0.00985475,1310,0.00146984,3.48632
2,1,Potentiostatic EIS,60.7621,3.48628,-0.0152108,794328,2.28028,87.1128,0.114859,-2.27739,1.04975,0.00434781,0.00991418,1445,0.00181915,3.48628
2,1,Potentiostatic EIS,60.9964,3.48627,-0.0157786,707946,2.03743,87.2976,0.0960611,-2.03517,1.08052,0.00482752,0.00983525,1340,0.0018928,3.48627
2,1,Potentiostatic EIS,61.2329,3.48624,-0.0168052,630957.25,1.81861,86.8014,0.101473,-1.81577,1.0116,0.00532302,0.0096812,1355,0.00214753,3.48624
2,1,Potentiostatic EIS,61.4991,3.48621,-0.017049,562341.25,1.62603,86.5233,0.0986065,-1.62303,0.860796,0.00612882,0.00996566,1360,0.00241846,3.48621
2,1,Potentiostatic EIS,61.7636,3.48619,-0.0173195,501187,1.45685,86.6124,0.0860861,-1.4543,1.20338,0.00682594,0.00994443,1385,0.00276344,3.48619
2,1,Potentiostatic EIS,62.035,3.48618,-0.0178818,446684,1.30127,86.0292,0.0901102,-1.29815,1.08518,0.00764048,0.00994236,1360,0.00304466,3.48618
2,1,Potentiostatic EIS,62.3192,3.48616,-0.0186332,398107,1.16806,85.6769,0.0880496,-1.16473,1.12127,0.00852654,0.00995951,1400,0.00351664,3.48616
2,1,Potentiostatic EIS,62.613,3.48613,-0.0189554,354813,1.04221,85.4472,0.0827288,-1.03892,1.23615,0.00954743,0.00995043,1365,0.00384709,3.48613
2,1,Potentiostatic EIS,62.9665,3.4861,-0.0195605,316228,0.932621,85.1655,0.078599,-0.929303,1.16538,0.0106047,0.00989019,1370,0.00433232,3.4861
2,1,Potentiostatic EIS,63.3719,3.48605,-0.0206308,281838.25,0.837651,84.86,0.0750451,-0.834282,1.21306,0.0118959,0.00996464,1370,0.00486094,3.48605
2,1,Potentiostatic EIS,63.7061,3.48602,-0.0212848,251189,0.749947,84.3859,0.0733653,-0.74635,1.26873,0.013062,0.0097965,1340,0.00533464,3.48602
2,1,Potentiostatic EIS,64.095,3.486,-0.0220466,223872,0.673683,84.2424,0.0675833,-0.670285,1.35997,0.0148314,0.00999161,1360,0.0060749,3.486
2,1,Potentiostatic EIS,64.5074,3.48596,-0.0227768,199526,0.600959,84.0586,0.0622063,-0.597731,1.36012,0.0165052,0.00991893,1355,0.00679109,3.48596
2,1,Potentiostatic EIS,64.945,3.48593,-0.0235067,177828,0.540954,83.5723,0.0605597,-0.537554,1.39608,0.0184114,0.00995974,1355,0.00761973,3.48593
2,1,Potentiostatic EIS,65.6101,3.48591,-0.0243876,158489,0.484364,82.9781,0.0592126,-0.480731,1.42906,0.0205966,0.0099763,1360,0.00858103,3.48591
2,1,Potentiostatic EIS,66.1092,3.48583,-0.0259275,141254,0.434875,82.8233,0.0543286,-0.431468,1.55388,0.0229462,0.00997875,1355,0.00959267,3.48583
2,1,Potentiostatic EIS,66.6442,3.4858,-0.0265849,125892,0.391786,82.112,0.0537672,-0.388079,1.62947,0.0255508,0.0100105,1370,0.0108823,3.4858
2,1,Potentiostatic EIS,67.2164,3.48576,-0.027735,112202,0.351275,81.7098,0.0506494,-0.347605,1.57107,0.0284087,0.00997927,1360,0.012121,3.48576
2,1,Potentiostatic EIS,67.7776,3.48574,-0.0283636,99999.9,0.31453,81.2734,0.0477202,-0.310889,1.64821,0.0316076,0.00994156,1370,0.0137,3.48574
2,1,Potentiostatic EIS,68.3979,3.48568,-0.029855,89125.1,0.283494,80.7944,0.0453527,-0.279843,1.86263,0.035303,0.0100082,1365,0.0153156,3.48568
2,1,Potentiostatic EIS,69.0687,3.48563,-0.0306131,79432.8,0.254699,80.021,0.044136,-0.250846,2.33868,0.0392581,0.00999898,1365,0.0171843,3.48563
2,1,Potentiostatic EIS,69.8014,3.48559,-0.031732,70794.5,0.228989,79.5527,0.0415229,-0.225193,1.83983,0.0436314,0.00999121,1370,0.0193518,3.48559
2,1,Potentiostatic EIS,70.0473,3.48556,-0.0326678,63095.7,0.205456,78.9947,0.0392215,-0.201678,1.88824,0.0481748,0.00989807,1290,0.0204451,3.48556
2,1,Potentiostatic EIS,70.301,3.48553,-0.0331196,56234.1,0.185573,78.1522,0.0381006,-0.18162,1.86301,0.0529838,0.00983234,1150,0.0204502,3.48553
2,1,Potentiostatic EIS,70.6432,3.48554,-0.0329354,50118.7,0.166365,77.3668,0.0363855,-0.162338,1.78307,0.0584423,0.00972394,1025,0.0204515,3.48554
2,1,Potentiostatic EIS,70.9971,3.48597,-0.0187393,44668.3,0.149781,76.1212,0.0359278,-0.145408,3.44518,0.0645675,0.00967055,910,0.0203724,3.48597
2,1,Potentiostatic EIS,71.2183,3.48606,-0.0164541,39810.7,0.135156,75.5288,0.0337745,-0.130867,4.43117,0.0739737,0.00999798,815,0.0204719,3.48606
2,1,Potentiostatic EIS,71.4412,3.48606,-0.0162685,35481.3,0.12161,74.4579,0.0325849,-0.117163,4.65572,0.0820624,0.00997959,725,0.0204333,3.48606
2,1,Potentiostatic EIS,71.6646,3.48605,-0.0160093,31622.8,0.110571,73.1609,0.0320309,-0.10583,5.13408,0.0907683,0.0100364,645,0.0203967,3.48605
2,1,Potentiostatic EIS,71.8839,3.48607,-0.0155827,28183.8,0.099315,72.2044,0.0303528,-0.0945631,5.48388,0.100373,0.00996867,575,0.0204018,3.48607
2,1,Potentiostatic EIS,72.1021,3.4864,-0.00540805,25118.8,0.0906101,70.5258,0.0302078,-0.0854264,5.70828,0.111092,0.010066,510,0.0203035,3.4864
2,1,Potentiostatic EIS,72.3231,3.48642,-0.00510543,22387.2,0.0814492,69.1687,0.0289648,-0.076125,6.03261,0.122649,0.00998975,455,0.0203241,3.48642
2,1,Potentiostatic EIS,72.5433,3.48646,-0.00463936,19952.6,0.0743911,67.4601,0.0285161,-0.0687086,6.19483,0.135231,0.01006,405,0.0202981,3.48646
2,1,Potentiostatic EIS,72.763,3.48644,-0.00433443,17782.8,0.0676409,65.852,0.0276716,-0.0617218,6.34821,0.148182,0.0100231,360,0.0202443,3.48644
2,1,Potentiostatic EIS,72.989,3.48644,-0.00452554,15848.9,0.0612702,63.8429,0.02701,-0.0549954,6.60837,0.163285,0.0100045,320,0.0201906,3.48644
2,1,Potentiostatic EIS,73.1929,3.48649,-0.00353958,14125.4,0.0564337,61.6913,0.0267621,-0.0496846,6.65892,0.172474,0.00973326,285,0.0201765,3.48649
2,1,Potentiostatic EIS,73.396,3.4865,-0.00332992,12589.2,0.0515548,59.7587,0.0259652,-0.0445388,6.65227,0.189907,0.00979167,255,0.0202554,3.4865
2,1,Potentiostatic EIS,73.5985,3.4865,-0.00317858,11220.2,0.0475767,57.0896,0.0258497,-0.0399416,6.71915,0.205563,0.00977958,225,0.0200532,3.4865
2,1,Potentiostatic EIS,73.8586,3.4867,-0.00287805,9999.98,0.0439882,55.0608,0.0251923,-0.0360598,3.25861,0.228684,0.0100594,307,0.0307001,3.4867
2,1,Potentiostatic EIS,74.0714,3.4867,-0.00308458,8912.5,0.0408719,52.7509,0.024739,-0.0325345,3.60475,0.242621,0.00991638,273,0.0306311,3.4867
2,1,Potentiostatic EIS,74.284,3.4867,-0.00361858,7943.27,0.0380165,50.6444,0.0241074,-0.0293953,3.94146,0.27734,0.0105435,244,0.0307178,3.4867
2,1,Potentiostatic EIS,74.4963,3.48669,-0.00401128,7079.45,0.0349712,48.3126,0.0232582,-0.026116,4.27814,0.302928,0.0105937,217,0.0306521,3.48669
2,1,Potentiostatic EIS,74.7108,3.48673,-0.00252978,6309.57,0.0323004,44.5976,0.0229997,-0.0226789,4.5456,0.326035,0.0105311,193,0.0305885,3.48673
2,1,Potentiostatic EIS,74.9216,3.48673,-0.00258644,5623.41,0.0305441,40.8253,0.0231129,-0.0199684,4.64204,0.34109,0.0104183,172,0.0305864,3.48673
2,1,Potentiostatic EIS,75.1334,3.48674,-0.00219788,5011.87,0.0291794,37.444,0.0231669,-0.0177407,4.65296,0.353938,0.0103277,153,0.0305276,3.48674
2,1,Potentiostatic EIS,75.3454,3.48675,-0.0020791,4466.83,0.0280148,34.2114,0.0231674,-0.0157512,4.58089,0.366443,0.0102658,137,0.0306705,3.48675
2,1,Potentiostatic EIS,75.5575,3.48675,-0.00200164,3981.07,0.0270357,31.155,0.0231364,-0.013987,4.49223,0.377658,0.0102102,122,0.0306451,3.48675
2,1,Potentiostatic EIS,75.7705,3.48677,-0.00152144,3548.13,0.0262062,28.2088,0.0230937,-0.0123873,4.36899,0.386382,0.0101256,108,0.0304386,3.48677
2,1,Potentiostatic EIS,75.9388,3.48679,-0.000761043,3162.27,0.0255284,25.3726,0.023066,-0.010939,4.29424,0.35675,0.00910728,97,0.0306742,3.48679
2,1,Potentiostatic EIS,76.1059,3.48678,-0.00125602,2818.38,0.0249601,22.7175,0.0230237,-0.0096393,4.0309,0.401229,0.0100147,86,0.030514,3.48678
2,1,Potentiostatic EIS,76.2734,3.48679,-0.00105104,2511.88,0.0245256,20.1741,0.023021,-0.00845825,3.72307,0.426936,0.0104709,77,0.0306543,3.48679
2,1,Potentiostatic EIS,76.4411,3.48678,-0.00152822,2238.72,0.0241673,17.758,0.0230158,-0.00737099,3.53854,0.429158,0.0103716,68,0.0303745,3.48678
2,1,Potentiostatic EIS,76.6089,3.48681,-0.000580458,1995.26,0.0239046,15.5374,0.023031,-0.00640327,3.3153,0.429453,0.0102659,61,0.0305725,3.48681
2,1,Potentiostatic EIS,76.7757,3.48682,-0.000243162,1778.28,0.0236992,13.443,0.0230499,-0.00550954,3.13716,0.430416,0.0102005,54,0.0303664,3.48682
2,1,Potentiostatic EIS,76.9424,3.4868,-0.000614858,1584.89,0.0235711,11.4602,0.0231012,-0.00468327,2.98215,0.429703,0.0101286,48,0.030286,3.4868
2,1,Potentiostatic EIS,77.0653,3.48681,-0.000505057,1412.53,0.0235012,9.69422,0.0231656,-0.00395736,2.92646,0.372203,0.00874721,43,0.0304417,3.48681
2,1,Potentiostatic EIS,77.1876,3.48681,-0.000674451,1258.92,0.0234375,8.08712,0.0232044,-0.00329715,2.82809,0.392828,0.0092069,38,0.0301845,3.48681
2,1,Potentiostatic EIS,77.3106,3.48682,-0.00028491,1122.02,0.023454,6.60148,0.0232985,-0.00269634,2.55841,0.433474,0.0101667,34,0.0303026,3.48682
2,1,Potentiostatic EIS,77.4367,3.48682,-0.000125551,999.999,0.0234881,5.22282,0.0233906,-0.0021381,2.50052,0.438341,0.0102958,30,0.03,3.48682
2,1,Potentiostatic EIS,77.5598,3.48682,-0.000320576,891.25,0.0235567,3.99254,0.0234995,-0.00164018,2.3294,0.433657,0.0102155,27,0.0302945,3.48682
2,1,Potentiostatic EIS,77.6817,3.48685,0.000605996,794.328,0.023666,2.85778,0.0236366,-0.00117992,2.19289,0.429984,0.010176,24,0.0302142,3.48685
2,1,Potentiostatic EIS,77.8032,3.48683,0.000236674,707.945,0.0237801,1.78802,0.0237685,-0.000741983,2.12377,0.425441,0.010117,21,0.0296633,3.48683
2,1,Potentiostatic EIS,77.9263,3.48684,0.000139655,630.956,0.0239189,0.886537,0.023916,-0.000370082,2.06513,0.421825,0.0100896,19,0.030113,3.48684
2,1,Potentiostatic EIS,78.0502,3.48684,0.000465033,562.34,0.024067,0.0187295,0.024067,-7.86729e-06,1.99623,0.418313,0.0100675,17,0.0302308,3.48684
2,1,Potentiostatic EIS,78.1735,3.48684,0.000259103,501.185,0.0242404,-0.718424,0.0242385,0.000303939,1.9512,0.414425,0.0100458,15,0.029929,3.48684
2,1,Potentiostatic EIS,78.2968,3.48685,0.000224854,446.683,0.0244155,-1.3991,0.0244083,0.000596143,1.90268,0.411172,0.010039,13,0.0291034,3.48685
2,1,Potentiostatic EIS,78.3755,3.48683,0.000219998,398.107,0.024619,-2.00701,0.0246039,0.000862202,1.90855,0.347934,0.00856578,12,0.0301427,3.48683
2,1,Potentiostatic EIS,78.4538,3.48685,0.000280538,354.813,0.0248345,-2.55577,0.0248098,0.00110741,1.85343,0.356631,0.00885674,10,0.0281839,3.48685
2,1,Potentiostatic EIS,78.5325,3.48685,0.000366778,316.227,0.025047,-2.98545,0.025013,0.00130451,1.76783,0.362959,0.00909103,9,0.0284606,3.48685
2,1,Potentiostatic EIS,78.6123,3.48686,0.000742312,281.838,0.0252857,-3.41286,0.0252409,0.00150527,1.6767,0.366913,0.00927766,8,0.0283851,3.48686
2,1,Potentiostatic EIS,78.6923,3.48685,0.000900695,251.188,0.0255093,-3.77537,0.0254539,0.00167966,1.60995,0.369763,0.00943239,8,0.0318487,3.48685
2,1,Potentiostatic EIS,78.7774,3.48685,0.00102568,223.872,0.0257537,-4.05672,0.0256892,0.00182192,1.51718,0.370792,0.00954927,8,0.0357347,3.48685
2,1,Potentiostatic EIS,78.8657,3.48685,0.000841519,199.526,0.0259912,-4.28121,0.0259186,0.00194028,1.45757,0.37089,0.00963987,8,0.0400951,3.48685
2,1,Potentiostatic EIS,78.9589,3.48685,0.000822484,177.828,0.0262268,-4.45913,0.0261475,0.00203908,1.32759,0.370232,0.00971003,8,0.0449874,3.48685
2,1,Potentiostatic EIS,79.0589,3.48684,0.000612907,158.489,0.0264735,-4.63311,0.026387,0.00213839,1.24136,0.36881,0.00976369,8,0.0504767,3.48684
2,1,Potentiostatic EIS,79.1644,3.48684,0.000412345,141.253,0.026702,-4.75991,0.0266099,0.00221575,1.16445,0.366998,0.00979958,8,0.0566359,3.48684
2,1,Potentiostatic EIS,79.2765,3.48684,0.000455617,125.892,0.026936,-4.8386,0.02684,0.00227203,1.07798,0.364983,0.00983119,8,0.0635464,3.48684
2,1,Potentiostatic EIS,79.3958,3.48683,0.000325062,112.201,0.0271743,-4.89378,0.0270752,0.0023182,0.979105,0.36257,0.00985258,8,0.0713003,3.48683
2,1,Potentiostatic EIS,79.5244,3.48683,0.000544982,99.9997,0.0274117,-4.90951,0.0273112,0.00234596,0.885441,0.359952,0.0098669,8,0.0800003,3.48683
2,1,Potentiostatic EIS,79.6639,3.48684,0.000766499,89.1248,0.0276398,-4.9046,0.0275386,0.00236312,0.807292,0.357381,0.00987795,8,0.0897617,3.48684
2,1,Potentiostatic EIS,79.8158,3.48685,0.000669844,79.4325,0.0278637,-4.86932,0.0277631,0.00236517,0.741821,0.354776,0.00988539,8,0.100714,3.48685
2,1,Potentiostatic EIS,79.9831,3.48685,0.000679915,70.7943,0.0280813,-4.82828,0.0279817,0.0023636,0.645093,0.352217,0.00989071,8,0.113003,3.48685
2,1,Potentiostatic EIS,80.1628,3.48684,0.000534274,63.0956,0.0282903,-4.77026,0.0281923,0.00235264,0.615642,0.34962,0.00989086,8,0.126792,3.48684
2,1,Potentiostatic EIS,80.36,3.48685,0.00110908,56.2341,0.0284981,-4.73312,0.0284009,0.00235151,0.529881,0.33817,0.0096372,8,0.142263,3.48685
2,1,Potentiostatic EIS,80.5744,3.48685,0.000771055,50.1186,0.0286975,-4.61351,0.0286046,0.00230826,0.479703,0.336961,0.00966994,8,0.159621,3.48685
2,1,Potentiostatic EIS,80.8083,3.48685,0.000785966,44.6682,0.0288977,-4.5054,0.0288084,0.00227,0.427425,0.335638,0.00969918,8,0.179098,3.48685
2,1,Potentiostatic EIS,81.067,3.48684,0.000403391,39.8106,0.0290771,-4.40333,0.0289913,0.00223245,0.394184,0.334141,0.00971586,8,0.200952,3.48684
2,1,Potentiostatic EIS,81.3515,3.48685,0.000757386,35.4812,0.0292586,-4.28467,0.0291769,0.00218597,0.355275,0.332981,0.00974257,8,0.225471,3.48685
2,1,Potentiostatic EIS,81.4947,3.48684,-0.000242914,31.6227,0.0294268,-4.19054,0.0293482,0.00215032,0.343912,0.3356,0.00987566,2,0.0632458,3.48684
2,1,Potentiostatic EIS,81.6404,3.48685,0.000245555,28.1838,0.029603,-4.00657,0.0295306,0.00206838,0.311813,0.334313,0.00989668,2,0.0709628,3.48685
2,1,Potentiostatic EIS,81.8025,3.48685,0.000341019,25.1188,0.0297714,-3.85969,0.0297039,0.00200402,0.289512,0.323726,0.00963784,2,0.0796217,3.48685
2,1,Potentiostatic EIS,81.9831,3.48684,0.000276114,22.3871,0.0299152,-3.74576,0.0298513,0.00195434,0.297651,0.323761,0.00968525,2,0.0893371,3.48684
2,1,Potentiostatic EIS,82.1829,3.48684,0.000153791,19.9525,0.0300634,-3.60019,0.0300041,0.0018878,0.279943,0.323965,0.00973954,2,0.100238,3.48684
2,1,Potentiostatic EIS,82.4056,3.48683,5.75801e-05,17.7828,0.0301862,-3.45847,0.0301312,0.00182098,0.259992,0.323722,0.00977188,2,0.112468,3.48683
2,1,Potentiostatic EIS,82.6528,3.48685,0.000289935,15.8489,0.0303279,-3.32926,0.0302767,0.00176126,0.240269,0.323559,0.00981282,2,0.126192,3.48685
2,1,Potentiostatic EIS,82.9283,3.48684,0.000137359,14.1253,0.030448,-3.21612,0.0304,0.0017082,0.250711,0.323157,0.00983949,2,0.14159,3.48684
2,1,Potentiostatic EIS,83.2352,3.48685,5.27073e-05,12.5892,0.0305586,-3.06256,0.0305149,0.00163263,0.237803,0.322655,0.00985985,2,0.158866,3.48685
2,1,Potentiostatic EIS,83.5775,3.48684,-0.000328168,11.2201,0.0306721,-2.92704,0.0306321,0.00156625,0.211174,0.321891,0.00987311,2,0.178251,3.48684
2,1,Potentiostatic EIS,83.959,3.48684,-0.000155913,9.99996,0.0307749,-2.82692,0.0307375,0.00151779,0.226402,0.321427,0.00989189,2,0.200001,3.48684
2,1,Potentiostatic EIS,84.3848,3.48684,-0.000429985,8.91248,0.0308724,-2.70558,0.030838,0.00145729,0.252088,0.320513,0.009895,2,0.224404,3.48684
2,1,Potentiostatic EIS,84.8603,3.48685,-8.40038e-06,7.94325,0.0309596,-2.58656,0.0309281,0.00139717,0.230967,0.319993,0.00990687,2,0.251786,3.48685
2,1,Potentiostatic EIS,85.3923,3.48684,-0.000174359,7.07944,0.0310395,-2.47814,0.0310104,0.00134209,0.224365,0.319253,0.00990942,2,0.282508,3.48684
2,1,Potentiostatic EIS,85.9864,3.48685,-0.000135818,6.30955,0.0311189,-2.40997,0.0310914,0.00130853,0.178904,0.319038,0.0099281,2,0.31698,3.48685
2,1,Potentiostatic EIS,86.6522,3.48685,-0.000481261,5.62339,0.0311969,-2.31939,0.0311714,0.00126254,0.206859,0.318136,0.00992487,2,0.355657,3.48685
2,1,Potentiostatic EIS,87.3958,3.48685,-0.000294295,5.01185,0.0312686,-2.24401,0.0312446,0.00122433,0.217956,0.317555,0.0099295,2,0.399054,3.48685
2,1,Potentiostatic EIS,88.2283,3.48685,-0.000175157,4.46682,0.0313384,-2.18178,0.0313157,0.00119305,0.211648,0.316833,0.00992902,2,0.447745,3.48685
2,1,Potentiostatic EIS,89.1606,3.48686,-0.000468647,3.98106,0.0313864,-2.10884,0.0313652,0.00115495,0.215718,0.316416,0.00993116,2,0.502378,3.48686
2,1,Potentiostatic EIS,90.2037,3.48686,-0.000815543,3.54812,0.0314507,-2.05606,0.0314305,0.00112837,0.196685,0.315736,0.00993015,2,0.563679,3.48686
2,1,Potentiostatic EIS,91.3696,3.48686,-0.000674335,3.16227,0.0315149,-2.0307,0.0314951,0.00111673,0.170671,0.315328,0.00993751,2,0.632458,3.48686
2,1,Potentiostatic EIS,92.6749,3.48685,-0.000745221,2.81837,0.0315905,-1.99305,0.0315714,0.00109866,0.18454,0.314688,0.00994113,2,0.70963,3.48685
2,1,Potentiostatic EIS,94.1372,3.48685,-0.000932556,2.51188,0.031643,-1.97504,0.0316242,0.00109055,0.187669,0.314238,0.00994343,2,0.796217,3.48685
2,1,Potentiostatic EIS,95.7769,3.48686,-0.000564685,2.23872,0.0316949,-1.94038,0.0316767,0.00107318,0.210223,0.313501,0.00993638,2,0.893369,3.48686
2,1,Potentiostatic EIS,97.6146,3.48685,-0.000964826,1.99526,0.031748,-1.93446,0.0317299,0.00107169,0.195915,0.313291,0.00994636,2,1.00238,3.48685
2,1,Potentiostatic EIS,99.6748,3.48686,-0.000981309,1.77827,0.0317967,-1.93283,0.0317786,0.00107243,0.212129,0.312566,0.00993855,2,1.12469,3.48686
2,1,Potentiostatic EIS,101.985,3.48686,-0.000713714,1.58489,0.0318424,-1.92791,0.0318244,0.00107124,0.203038,0.312069,0.00993701,2,1.26192,3.48686
2,1,Potentiostatic EIS,104.574,3.48687,-0.000777915,1.41253,0.0318978,-1.9528,0.0318793,0.00108695,0.1995,0.311614,0.00993977,2,1.4159,3.48687
2,1,Potentiostatic EIS,107.478,3.48687,-0.000817141,1.25892,0.0319631,-1.96289,0.0319443,0.0010948,0.205879,0.311044,0.00994194,2,1.58866,3.48687
2,1,Potentiostatic EIS,110.735,3.48686,-0.000738276,1.12202,0.0320077,-2.00371,0.0319882,0.00111913,0.201537,0.310701,0.00994483,2,1.78251,3.48686
2,1,Potentiostatic EIS,114.386,3.48686,-0.000894645,0.999995,0.0320467,-2.02033,0.0320268,0.00112978,0.184769,0.310306,0.0099443,2,2.00001,3.48686
2,1,Potentiostatic EIS,118.482,3.48686,-0.000906986,0.891248,0.032115,-2.09822,0.0320934,0.00117581,0.233152,0.30962,0.00994341,2,2.24404,3.48686
2,1,Potentiostatic EIS,123.076,3.48686,-0.000661484,0.794324,0.0321743,-2.12506,0.0321522,0.00119305,0.188681,0.309043,0.00994325,2,2.51786,3.48686
2,1,Potentiostatic EIS,128.231,3.48686,-0.000912036,0.707944,0.0322356,-2.18725,0.0322121,0.00123028,0.224575,0.308517,0.0099452,2,2.82508,3.48686
2,1,Potentiostatic EIS,134.01,3.48687,-0.000698625,0.630955,0.0322937,-2.25115,0.0322687,0.00126849,0.166214,0.307907,0.00994344,2,3.1698,3.48687
2,1,Potentiostatic EIS,140.496,3.48686,-0.000683111,0.562339,0.0323534,-2.32407,0.0323268,0.00131198,0.211696,0.307166,0.00993787,2,3.55657,3.48686
2,1,Potentiostatic EIS,147.77,3.48686,-0.0008403,0.501186,0.0324166,-2.40912,0.0323879,0.00136262,0.151166,0.306797,0.00994529,2,3.99054,3.48686
2,1,Potentiostatic EIS,155.93,3.48685,-0.00071046,0.446681,0.0324793,-2.50047,0.0324484,0.001417,0.21247,0.306145,0.00994339,2,4.47747,3.48685
2,1,Potentiostatic EIS,165.084,3.48685,-0.00052913,0.398106,0.0325604,-2.62457,0.0325263,0.00149098,0.21416,0.305304,0.0099408,2,5.02379,3.48685
2,1,Potentiostatic EIS,175.354,3.48685,-0.000800687,0.354812,0.032623,-2.72286,0.0325862,0.00154976,0.193697,0.304852,0.00994519,2,5.63679,3.48685
2,1,Potentiostatic EIS,186.87,3.48685,-0.000525093,0.316226,0.032704,-2.84931,0.0326636,0.00162569,0.192866,0.304189,0.00994819,2,6.32458,3.48685
2,1,Potentiostatic EIS,199.79,3.48685,-0.000536325,0.281837,0.0327814,-2.97877,0.0327371,0.00170351,0.200507,0.303477,0.00994838,2,7.09631,3.48685
2,1,Potentiostatic EIS,214.285,3.48685,-0.000814494,0.251188,0.0328684,-3.12028,0.0328197,0.0017891,0.208268,0.30272,0.00994992,2,7.96218,3.48685
2,1,Potentiostatic EIS,230.548,3.48686,-0.00023434,0.223871,0.032943,-3.26293,0.0328896,0.00187505,0.181084,0.301966,0.00994765,2,8.9337,3.48686
2,1,Potentiostatic EIS,248.792,3.48686,-0.000449442,0.199525,0.0330337,-3.43065,0.0329745,0.00197675,0.197523,0.301076,0.00994568,2,10.0238,3.48686
2,1,Potentiostatic EIS,269.258,3.48686,-0.000494928,0.177827,0.0331324,-3.59289,0.0330673,0.0020763,0.184164,0.300211,0.00994671,2,11.2469,3.48686
2,1,Potentiostatic EIS,292.228,3.48684,-0.000188323,0.158489,0.0332399,-3.77982,0.0331676,0.00219126,0.209851,0.299078,0.0099413,2,12.6192,3.48684
2,1,Potentiostatic EIS,317.994,3.48685,-0.000373114,0.141253,0.0333534,-4.00968,0.0332718,0.00233224,0.206897,0.298322,0.00995004,2,14.159,3.48685
2,1,Potentiostatic EIS,346.907,3.48686,-0.00033461,0.125892,0.0334483,-4.20263,0.0333584,0.00245123,0.199008,0.29746,0.00994952,2,15.8867,3.48686
2,1,Potentiostatic EIS,379.34,3.48686,0.0001735,0.112201,0.033558,-4.4385,0.0334574,0.00259702,0.208483,0.296512,0.00995033,2,17.8251,3.48686
2,1,Potentiostatic EIS,415.731,3.48686,-0.00058101,0.0999997,0.0336952,-4.69652,0.0335821,0.0027589,0.197065,0.295339,0.0099515,2,20.0001,3.48686
2,1,Potentiostatic EIS,456.56,3.48686,4.15923e-05,0.0891246,0.0338323,-4.99029,0.0337041,0.00294297,0.194291,0.294253,0.00995526,2,22.4405,3.48686
2,1,Potentiostatic EIS,502.359,3.48685,-0.000156508,0.0794325,0.0339697,-5.28359,0.0338254,0.00312812,0.195782,0.292775,0.00994548,2,25.1786,3.48685
2,1,Potentiostatic EIS,553.758,3.48685,-0.000706237,0.0707942,0.0341264,-5.62409,0.0339621,0.00334443,0.190739,0.291468,0.00994673,2,28.2509,3.48685
2,1,Potentiostatic EIS,611.416,3.48685,6.27116e-05,0.0630955,0.0343109,-5.9527,0.0341259,0.00355829,0.183978,0.290039,0.00995148,2,31.698,3.48685
2,1,Potentiostatic EIS,676.105,3.48686,3.33279e-05,0.0562339,0.0344697,-6.33838,0.034259,0.00380546,0.182137,0.288544,0.00994602,2,35.5657,3.48686
2,1,Potentiostatic EIS,748.688,3.48685,-0.000409284,0.0501185,0.03467,-6.73127,0.034431,0.00406377,0.181169,0.286853,0.0099452,2,39.9054,3.48685
2,1,Potentiostatic EIS,821.441,3.48686,-0.000214145,0.05,0.0346581,-6.73807,0.0344187,0.00406646,0.199946,0.287065,0.00994914,2,40,3.48686