File: Data/P190/P190_04/EIS_08_P190_04_5/3_EIS_08_P190_04_5 20231019 151018.csv
Step number,Repeats,Step name,Elapsed Time  (s),DC Working Electrode (V),DC Current (A),Frequency (Hz),|Z| (Ohms),Phase (deg),Z' (Ohms),-Z" (Ohms),THD (%),Amplitude (A),Amplitude (V),No of Cycles,Duration of Each Frequency (s),IR Compensated DC Working Electrode (V)
3,1,Potentiostatic EIS,821.806,3.48637,-0.0075035,1000000,2.83443,87.564,0.120473,-2.83187,1.00111,0.00350246,0.0099276,1430,0.00143,3.48637
3,1,Potentiostatic EIS,822.26,3.48633,-0.00498709,990832,2.80863,87.6403,0.115638,-2.80625,0.99269,0.00350954,0.00985692,1435,0.00144828,3.48633
3,1,Potentiostatic EIS,822.718,3.48634,-0.00308889,981748.125,2.78487,87.6006,0.116589,-2.78243,0.981428,0.00352978,0.00982975,1435,0.00146168,3.48634
3,1,Potentiostatic EIS,823.181,3.48634,-0.00250263,972747,2.76413,87.5715,0.117125,-2.76164,1.04925,0.00355741,0.00983321,1430,0.00147006,3.48634
3,1,Potentiostatic EIS,823.643,3.48633,-0.00257456,963829,2.7334,87.4871,0.119843,-2.73077,1.03207,0.00359523,0.00982718,1430,0.00148367,3.48633
3,1,Potentiostatic EIS,824.104,3.48634,-0.00204719,954993,2.71397,87.5833,0.114441,-2.71156,0.932499,0.00363186,0.00985696,1425,0.00149216,3.48634
3,1,Potentiostatic EIS,824.571,3.48631,-0.00224898,946237,2.68993,87.4987,0.117396,-2.68737,1.09006,0.00365216,0.00982415,1415,0.0014954,3.48631
3,1,Potentiostatic EIS,825.035,3.48632,-0.001747,937562,2.66441,87.5682,0.113051,-2.66201,0.879992,0.00369379,0.00984188,1405,0.00149857,3.48632
3,1,Potentiostatic EIS,825.487,3.48632,-0.00221931,928967,2.63888,87.4531,0.117264,-2.63628,1.43898,0.00374074,0.00987159,1450,0.00156087,3.48632
3,1,Potentiostatic EIS,825.945,3.48631,-0.00200346,920450,2.61876,87.4395,0.11699,-2.61615,0.925917,0.00375736,0.00983973,1440,0.00156445,3.48631
3,1,Potentiostatic EIS,826.401,3.48629,-0.0024202,912011,2.5971,87.4022,0.117712,-2.59443,1.0266,0.00379316,0.00985112,1425,0.00156248,3.48629
3,1,Potentiostatic EIS,826.862,3.48632,-0.00192673,903650,2.56473,87.234,0.123768,-2.56174,1.07269,0.00382756,0.0098166,1415,0.00156587,3.48632
3,1,Potentiostatic EIS,827.318,3.4863,-0.00242068,895365.25,2.54588,87.2798,0.120823,-2.54301,0.886142,0.00386693,0.0098447,1405,0.00156919,3.4863
3,1,Potentiostatic EIS,827.776,3.4863,-0.00220342,887156,2.52453,87.362,0.116193,-2.52185,1.00124,0.00389547,0.00983421,1400,0.00157808,3.4863
3,1,Potentiostatic EIS,828.239,3.4863,-0.00259633,879023,2.49898,87.3098,0.11729,-2.49623,0.953468,0.00394753,0.00986473,1395,0.00158699,3.4863
3,1,Potentiostatic EIS,828.696,3.4863,-0.00256828,870964,2.47899,87.2754,0.117841,-2.47619,0.967027,0.00397809,0.0098615,1390,0.00159593,3.4863
3,1,Potentiostatic EIS,829.151,3.4863,-0.00274692,862979,2.4587,87.1942,0.120356,-2.45575,1.04837,0.00401142,0.00986264,1390,0.0016107,3.4863
3,1,Potentiostatic EIS,829.613,3.48629,-0.00299497,855067.25,2.43988,87.2049,0.118979,-2.43698,0.988942,0.00405185,0.00988608,1390,0.0016256,3.48629
3,1,Potentiostatic EIS,830.071,3.48628,-0.00287183,847228,2.42194,87.1306,0.121242,-2.4189,0.989831,0.00406112,0.00983601,1390,0.00164064,3.48628
3,1,Potentiostatic EIS,830.532,3.48629,-0.00313598,839461,2.39858,87.1733,0.118287,-2.39566,0.99465,0.00412642,0.00989766,1395,0.00166178,3.48629
3,1,Potentiostatic EIS,830.991,3.48631,-0.00295873,831764.375,2.37801,87.2483,0.114163,-2.37527,0.941836,0.00418281,0.00994672,1400,0.00168317,3.48631
3,1,Potentiostatic EIS,831.451,3.48627,-0.00327342,824139,2.35872,87.149,0.11732,-2.3558,0.95172,0.00419446,0.00989368,1405,0.00170481,3.48627
3,1,Potentiostatic EIS,831.904,3.48629,-0.00315351,816583,2.3382,87.2415,0.112528,-2.33549,1.03193,0.00422881,0.0098879,1415,0.00173283,3.48629
3,1,Potentiostatic EIS,832.363,3.48628,-0.00338619,809097,2.31654,87.2012,0.113115,-2.31378,1.02646,0.00425815,0.00986417,1420,0.00175504,3.48628
3,1,Potentiostatic EIS,832.823,3.48629,-0.00334664,801678.625,2.29484,87.201,0.112063,-2.2921,0.851907,0.00432051,0.00991494,1430,0.00178376,3.48629
3,1,Potentiostatic EIS,833.286,3.48628,-0.00383538,794329,2.28168,87.1543,0.113278,-2.27886,1.21428,0.00433215,0.00988447,1445,0.00181915,3.48628
3,1,Potentiostatic EIS,833.749,3.48628,-0.00362169,787046,2.25451,87.2291,0.108987,-2.25187,0.986741,0.00439814,0.00991571,1295,0.00164539,3.48628
3,1,Potentiostatic EIS,834.209,3.48626,-0.00412463,779830.875,2.23476,87.204,0.10901,-2.2321,1.03044,0.00442837,0.00989655,1310,0.00167985,3.48626
3,1,Potentiostatic EIS,834.669,3.48626,-0.00388496,772681.375,2.21649,87.0734,0.113168,-2.2136,1.04855,0.00445302,0.0098699,1330,0.00172128,3.48626
3,1,Potentiostatic EIS,835.128,3.48627,-0.0037329,765597.375,2.19395,87.1979,0.107252,-2.19132,0.947825,0.00449447,0.00986063,1350,0.00176333,3.48627
3,1,Potentiostatic EIS,835.589,3.48627,-0.00410443,758578,2.17888,87.1896,0.106835,-2.17626,0.994148,0.0045224,0.00985373,1370,0.00180601,3.48627
3,1,Potentiostatic EIS,836.048,3.48628,-0.00395354,751624,2.15794,87.2123,0.104951,-2.15538,0.896063,0.00456605,0.00985336,1390,0.00184933,3.48628
3,1,Potentiostatic EIS,836.508,3.48627,-0.00414979,744733,2.13845,87.1975,0.104557,-2.13589,0.815414,0.00461367,0.00986626,1410,0.0018933,3.48627
3,1,Potentiostatic EIS,836.968,3.48626,-0.00411771,737905.125,2.11886,87.1843,0.104087,-2.1163,1.10073,0.00463571,0.00982247,1435,0.00194469,3.48626
3,1,Potentiostatic EIS,837.434,3.48625,-0.00452662,731140,2.09909,87.2302,0.101434,-2.09664,0.890461,0.00467692,0.0098179,1310,0.00179172,3.48625
3,1,Potentiostatic EIS,837.892,3.48627,-0.00434482,724437,2.08184,87.2468,0.0999973,-2.07943,0.957381,0.00471651,0.00981905,1340,0.00184971,3.48627
3,1,Potentiostatic EIS,838.351,3.48626,-0.00445095,717795.25,2.064,87.1552,0.102438,-2.06146,0.957296,0.00475415,0.0098128,1365,0.00190166,3.48626
3,1,Potentiostatic EIS,838.815,3.48627,-0.00433291,711215,2.04563,87.3468,0.0946936,-2.04344,1.05111,0.00479246,0.00980352,1395,0.00196143,3.48627
3,1,Potentiostatic EIS,839.282,3.48625,-0.00463342,704694,2.0271,87.1825,0.0996436,-2.02465,0.929812,0.00481792,0.0097664,1425,0.00202215,3.48625
3,1,Potentiostatic EIS,839.751,3.48626,-0.00448678,698233.5,2.00842,87.2447,0.0965449,-2.0061,1.10761,0.00486223,0.00976572,1315,0.00188332,3.48626
3,1,Potentiostatic EIS,840.216,3.48625,-0.00456157,691832,1.99471,87.1158,0.100371,-1.99219,0.85969,0.00488784,0.00974981,1350,0.00195134,3.48625
3,1,Potentiostatic EIS,840.685,3.48624,-0.00482606,685489.375,1.97312,87.0548,0.101382,-1.97051,0.911026,0.0049355,0.00973783,1385,0.00202045,3.48624
3,1,Potentiostatic EIS,841.152,3.48627,-0.00429583,679205,1.95612,87.0209,0.101662,-1.95348,0.978212,0.00497571,0.0097329,1420,0.00209068,3.48627
3,1,Potentiostatic EIS,841.63,3.48626,-0.00471733,672978,1.94068,86.9322,0.10386,-1.9379,1.03169,0.00501242,0.00972726,1320,0.00196143,3.48626
3,1,Potentiostatic EIS,842.096,3.48625,-0.00475497,666808,1.9209,86.9265,0.102994,-1.91813,1.19206,0.00506389,0.00972747,1360,0.00203957,3.48625
3,1,Potentiostatic EIS,842.571,3.48626,-0.00478222,660695,1.90245,87.0004,0.099553,-1.89984,0.84046,0.00510997,0.0097218,1400,0.00211898,3.48626
3,1,Potentiostatic EIS,843.042,3.48625,-0.00489834,654637.375,1.88697,86.8262,0.104471,-1.88408,1.07839,0.00514172,0.00970302,1305,0.00199347,3.48625
3,1,Potentiostatic EIS,843.516,3.48624,-0.00520683,648635.625,1.87139,86.7222,0.107001,-1.86833,1.05235,0.0051781,0.00969025,1350,0.00208129,3.48624
3,1,Potentiostatic EIS,843.989,3.48624,-0.00482043,642689,1.85003,86.7099,0.106176,-1.84698,1.00017,0.00523721,0.00968946,1390,0.00216279,3.48624
3,1,Potentiostatic EIS,844.465,3.48624,-0.00528359,636796.75,1.83978,86.6231,0.10837,-1.83659,1.06396,0.00526289,0.00968279,1305,0.00204932,3.48624
3,1,Potentiostatic EIS,844.961,3.48624,-0.00531296,630959,1.81958,86.6583,0.106065,-1.81648,0.947418,0.00548111,0.00997332,1355,0.00214753,3.48624
3,1,Potentiostatic EIS,845.477,3.48621,-0.00574395,625174,1.80784,86.6994,0.104086,-1.80484,0.920217,0.00552604,0.00999015,1400,0.00223938,3.48621
3,1,Potentiostatic EIS,845.995,3.48624,-0.00527144,619442,1.78866,86.6299,0.105147,-1.78557,0.91919,0.00557092,0.00996447,1320,0.00213095,3.48624
3,1,Potentiostatic EIS,846.521,3.48622,-0.00564736,613763.25,1.77245,86.657,0.103359,-1.76943,1.06916,0.00563106,0.00998083,1370,0.00223213,3.48622
3,1,Potentiostatic EIS,847.041,3.48621,-0.00554838,608136,1.75634,86.6672,0.102107,-1.75337,1.05024,0.00567684,0.00997051,1420,0.002335,3.48621
3,1,Potentiostatic EIS,847.565,3.48623,-0.00568437,602560.875,1.74034,86.6054,0.103048,-1.73728,0.951259,0.00571137,0.00993975,1350,0.00224044,3.48623
3,1,Potentiostatic EIS,848.086,3.48621,-0.00540201,597037,1.72522,86.6762,0.100026,-1.72232,1.06012,0.00577281,0.00995937,1405,0.00235329,3.48621
3,1,Potentiostatic EIS,848.608,3.48622,-0.00568151,591562.875,1.70725,86.6361,0.100178,-1.70431,0.999943,0.00582768,0.0099494,1335,0.00225673,3.48622
3,1,Potentiostatic EIS,849.134,3.48622,-0.0054735,586139,1.69449,86.5553,0.101812,-1.69143,0.898268,0.00587931,0.00996244,1390,0.00237145,3.48622
3,1,Potentiostatic EIS,849.663,3.4862,-0.00598932,580766,1.67686,86.6122,0.0990936,-1.67393,1.04464,0.00593676,0.00995518,1330,0.00229008,3.4862
3,1,Potentiostatic EIS,850.195,3.48621,-0.00545233,575441.125,1.66586,86.5705,0.0996526,-1.66288,1.05385,0.00596675,0.00993975,1385,0.00240685,3.48621
3,1,Potentiostatic EIS,850.728,3.48623,-0.00570199,570166,1.65128,86.5103,0.100512,-1.64821,1.02342,0.00602295,0.00994559,1325,0.00232389,3.48623
3,1,Potentiostatic EIS,851.262,3.48622,-0.00559822,564938.25,1.63345,86.529,0.098893,-1.63045,1.02023,0.00608728,0.00994334,1385,0.0024516,3.48622
3,1,Potentiostatic EIS,851.789,3.4862,-0.0057226,559758.875,1.61981,86.5987,0.0961016,-1.61696,1.00697,0.00613897,0.00994397,1335,0.00238496,3.4862
3,1,Potentiostatic EIS,852.317,3.48621,-0.00569496,554626.875,1.60365,86.5868,0.0954752,-1.6008,0.933991,0.0062061,0.00995233,1395,0.0025152,3.48621
3,1,Potentiostatic EIS,852.852,3.48622,-0.00553802,549542,1.59151,86.551,0.0957467,-1.58863,0.953467,0.00626228,0.00996648,1345,0.00244749,3.48622
3,1,Potentiostatic EIS,853.387,3.48622,-0.00591816,544504,1.57957,86.4514,0.097769,-1.57654,0.974185,0.00630613,0.00996113,1410,0.00258951,3.48622
3,1,Potentiostatic EIS,853.918,3.48622,-0.00581234,539512,1.56499,86.5535,0.0940806,-1.56216,0.871205,0.00636587,0.00996254,1360,0.0025208,3.48622
3,1,Potentiostatic EIS,854.453,3.4862,-0.00588095,534566,1.54973,86.4992,0.0946288,-1.54683,0.993016,0.00642016,0.00994948,1320,0.00246929,3.4862
3,1,Potentiostatic EIS,854.991,3.48621,-0.00559042,529665,1.53478,86.592,0.0912352,-1.53206,1.09356,0.00648633,0.00995506,1385,0.00261486,3.48621
3,1,Potentiostatic EIS,855.525,3.48621,-0.00601084,524808.75,1.5228,86.5077,0.0927593,-1.51997,1.0668,0.00653839,0.00995672,1345,0.00256284,3.48621
3,1,Potentiostatic EIS,856.062,3.48622,-0.00548739,519997.25,1.50864,86.618,0.0889999,-1.50602,0.883831,0.00659571,0.00995049,1415,0.00272117,3.48622
3,1,Potentiostatic EIS,856.604,3.48621,-0.00616464,515230,1.49483,86.5497,0.089964,-1.49212,0.91605,0.00666473,0.00996266,1380,0.00267842,3.48621
3,1,Potentiostatic EIS,857.142,3.48624,-0.00556002,510506.25,1.48137,86.6434,0.0867342,-1.47883,0.934118,0.00671527,0.00994782,1345,0.00263464,3.48624
3,1,Potentiostatic EIS,857.69,3.48621,-0.00595044,505826,1.47034,86.5387,0.0887703,-1.46766,1.01414,0.00676581,0.00994813,1315,0.00259971,3.48621
3,1,Potentiostatic EIS,858.232,3.48622,-0.00576653,501188,1.4574,86.5865,0.0867758,-1.45482,0.997655,0.00682134,0.00994148,1385,0.00276343,3.48622
3,1,Potentiostatic EIS,858.776,3.48622,-0.0059851,496594,1.44286,86.6098,0.0853249,-1.44034,0.907508,0.00690166,0.0099583,1355,0.00272859,3.48622
3,1,Potentiostatic EIS,859.326,3.4862,-0.00620264,492041,1.43141,86.5158,0.0869905,-1.42876,0.924844,0.00695127,0.0099501,1330,0.00270303,3.4862
3,1,Potentiostatic EIS,859.855,3.4862,-0.00617213,487530,1.41922,86.4406,0.0881087,-1.41648,0.990231,0.00700679,0.00994415,1405,0.00288188,3.4862
3,1,Potentiostatic EIS,860.376,3.48618,-0.00641743,483060,1.40768,86.2497,0.0920741,-1.40466,0.984402,0.0070749,0.00995919,1385,0.00286714,3.48618
3,1,Potentiostatic EIS,860.923,3.48618,-0.00587593,478631,1.39519,86.3562,0.0886698,-1.39237,1.09495,0.00713178,0.0099502,1365,0.00285188,3.48618
3,1,Potentiostatic EIS,861.467,3.48619,-0.00617055,474243,1.38037,86.2603,0.0900333,-1.37743,1.05597,0.00720624,0.00994728,1345,0.0028361,3.48619
3,1,Potentiostatic EIS,862.015,3.48619,-0.00611048,469895,1.36736,86.2368,0.0897443,-1.36441,1.01418,0.00726396,0.00993254,1325,0.00281978,3.48619
3,1,Potentiostatic EIS,862.563,3.4862,-0.00610961,465587,1.35572,86.2461,0.0887604,-1.35281,0.945622,0.00733692,0.00994687,1405,0.00301769,3.4862
3,1,Potentiostatic EIS,863.105,3.48619,-0.00600667,461319,1.34264,86.2356,0.0881508,-1.33975,0.966363,0.00739809,0.00993309,1395,0.00302394,3.48619
3,1,Potentiostatic EIS,863.649,3.48619,-0.00614312,457090,1.33106,86.1136,0.0902177,-1.328,0.965567,0.0074658,0.00993751,1380,0.0030191,3.48619
3,1,Potentiostatic EIS,864.201,3.4862,-0.0061233,452899,1.31932,86.1719,0.0880823,-1.31637,1.03897,0.00752758,0.00993132,1370,0.00302496,3.4862
3,1,Potentiostatic EIS,864.754,3.48618,-0.00640699,448747,1.30714,86.0129,0.0908889,-1.30398,0.993097,0.00760399,0.00993948,1360,0.00303066,3.48618
3,1,Potentiostatic EIS,865.292,3.48618,-0.00625066,444633,1.29708,85.9801,0.0909288,-1.29389,0.914892,0.00765883,0.00993416,1355,0.00304746,3.48618
3,1,Potentiostatic EIS,865.831,3.48619,-0.00624549,440556,1.28593,85.9457,0.0909166,-1.28271,0.980349,0.0077307,0.00994119,1350,0.00306431,3.48619
3,1,Potentiostatic EIS,866.383,3.48618,-0.00647511,436517,1.27254,85.9486,0.0899063,-1.26936,0.91272,0.00781528,0.00994528,1345,0.00308121,3.48618
3,1,Potentiostatic EIS,866.933,3.48618,-0.00608097,432515.25,1.26344,85.991,0.0883316,-1.26034,0.91954,0.00786297,0.00993437,1345,0.00310972,3.48618
3,1,Potentiostatic EIS,867.491,3.48617,-0.00662694,428550,1.25176,85.8262,0.0911067,-1.24844,0.937555,0.00793834,0.0099369,1345,0.00313849,3.48617
3,1,Potentiostatic EIS,868.037,3.4862,-0.0062204,424621,1.24119,85.8682,0.0894292,-1.23796,0.996036,0.00802868,0.00996512,1345,0.00316753,3.4862
3,1,Potentiostatic EIS,868.585,3.48618,-0.00642674,420728,1.23088,85.8355,0.0893857,-1.22763,1.01425,0.00807717,0.00994204,1350,0.00320872,3.48618
3,1,Potentiostatic EIS,869.128,3.48618,-0.00617382,416871,1.21997,85.814,0.0890508,-1.21671,0.910262,0.00814238,0.00993344,1355,0.00325041,3.48618
3,1,Potentiostatic EIS,869.685,3.48617,-0.00672618,413049,1.20733,85.8099,0.0882152,-1.2041,1.04383,0.00824256,0.00995148,1360,0.00329259,3.48617
3,1,Potentiostatic EIS,870.239,3.48616,-0.00644747,409262,1.19948,85.7917,0.0880211,-1.19625,1.04411,0.00829912,0.00995464,1365,0.00333527,3.48616
3,1,Potentiostatic EIS,870.796,3.48617,-0.00670987,405510,1.18967,85.7209,0.0887676,-1.18636,0.877231,0.00836463,0.00995122,1375,0.00339079,3.48617
3,1,Potentiostatic EIS,871.354,3.48618,-0.00661996,401792,1.17907,85.7742,0.0868823,-1.17587,0.922958,0.00845074,0.00996404,1385,0.00344706,3.48618
3,1,Potentiostatic EIS,871.916,3.48619,-0.0063469,398109,1.16805,85.7153,0.0872684,-1.16478,0.938981,0.00851986,0.00995164,1400,0.00351663,3.48619
3,1,Potentiostatic EIS,872.468,3.48617,-0.00688895,394459,1.15698,85.773,0.0852787,-1.15383,0.903618,0.00862091,0.00997423,1330,0.00337171,3.48617
3,1,Potentiostatic EIS,873.021,3.48615,-0.00697414,390842,1.14821,85.5998,0.0880938,-1.14482,1.12812,0.00867604,0.00996196,1345,0.00344129,3.48615
3,1,Potentiostatic EIS,873.579,3.48615,-0.00725276,387259,1.13712,85.5766,0.087701,-1.13373,1.1465,0.00875745,0.00995827,1365,0.00352477,3.48615
3,1,Potentiostatic EIS,874.152,3.48616,-0.00705026,383708.625,1.12497,85.582,0.0866584,-1.12163,1.07787,0.00884561,0.00995105,1380,0.00359648,3.48616
3,1,Potentiostatic EIS,874.717,3.48615,-0.00712729,380191,1.1146,85.6135,0.0852497,-1.11133,1.00441,0.00891747,0.00993951,1400,0.00368236,3.48615
3,1,Potentiostatic EIS,875.277,3.48614,-0.00680834,376705,1.10687,85.533,0.0862077,-1.10351,1.01735,0.0089874,0.0099479,1345,0.00357043,3.48614
3,1,Potentiostatic EIS,875.843,3.48615,-0.00696053,373252,1.09472,85.6171,0.0836599,-1.09152,0.995356,0.0090907,0.00995178,1365,0.00365705,3.48615
3,1,Potentiostatic EIS,876.411,3.48613,-0.0073304,369830,1.0849,85.5056,0.0850139,-1.08156,1.01328,0.00918055,0.00996008,1390,0.00375849,3.48613
3,1,Potentiostatic EIS,876.984,3.48615,-0.00700222,366439,1.07624,85.5467,0.0835664,-1.07299,0.930158,0.00922443,0.00992769,1340,0.00365682,3.48615
3,1,Potentiostatic EIS,877.556,3.48614,-0.0071035,363079,1.06607,85.3987,0.0855211,-1.06264,0.943914,0.00931597,0.00993153,1365,0.00375951,3.48614
3,1,Potentiostatic EIS,878.125,3.48614,-0.00701646,359751,1.05703,85.4442,0.0839602,-1.05369,0.909698,0.00940163,0.00993787,1395,0.00387769,3.48614
3,1,Potentiostatic EIS,878.706,3.48613,-0.00746287,356452,1.04691,85.3323,0.0851935,-1.04343,1.04002,0.00951103,0.00995708,1350,0.00378732,3.48613
3,1,Potentiostatic EIS,879.281,3.48615,-0.00703754,353185,1.03941,85.4952,0.0816374,-1.0362,1.02013,0.00956246,0.00993932,1380,0.00390731,3.48615
3,1,Potentiostatic EIS,879.864,3.48614,-0.00710234,349946.5,1.03052,85.4006,0.0826351,-1.0272,1.00937,0.00964942,0.00994388,1340,0.00382916,3.48614
3,1,Potentiostatic EIS,880.452,3.48612,-0.00737114,346738,1.02122,85.4598,0.0808389,-1.01801,0.974046,0.00973659,0.00994317,1375,0.00396553,3.48612
3,1,Potentiostatic EIS,881.042,3.48614,-0.00695577,343559,1.01082,85.298,0.0828599,-1.00742,0.923437,0.00984259,0.00994914,1340,0.00390035,3.48614
3,1,Potentiostatic EIS,881.631,3.48613,-0.0075369,340410,1.00123,85.2831,0.0823335,-0.997835,0.932152,0.00993606,0.00994825,1375,0.00403925,3.48613
3,1,Potentiostatic EIS,882.222,3.48615,-0.0069981,337288.625,0.992905,85.3138,0.0811186,-0.989586,0.973059,0.0100223,0.00995126,1345,0.00398768,3.48615
3,1,Potentiostatic EIS,882.81,3.48612,-0.00768719,334196,0.981865,85.3656,0.0793328,-0.978655,1.01821,0.0101304,0.00994673,1380,0.00412931,3.48612
3,1,Potentiostatic EIS,883.405,3.48611,-0.0076907,331132.5,0.97483,85.3069,0.0797593,-0.971562,1.12755,0.0101997,0.00994299,1355,0.00409202,3.48611
3,1,Potentiostatic EIS,884.003,3.48613,-0.00737101,328097,0.967056,85.2442,0.0801776,-0.963726,0.991676,0.0102554,0.00991749,1395,0.0042518,3.48613
3,1,Potentiostatic EIS,884.609,3.48611,-0.00746054,325089,0.958339,85.2991,0.07854,-0.955115,1.04076,0.0103708,0.0099388,1370,0.00421424,3.48611
3,1,Potentiostatic EIS,885.208,3.48612,-0.00745596,322108.25,0.948111,85.3067,0.0775768,-0.944932,1.09002,0.010472,0.00992859,1345,0.00417561,3.48612
3,1,Potentiostatic EIS,885.819,3.48611,-0.00796586,319155.125,0.94166,85.2514,0.0779538,-0.938427,1.10066,0.0105768,0.00995973,1390,0.00435525,3.48611
3,1,Potentiostatic EIS,886.429,3.48611,-0.00783358,316229,0.931428,85.1515,0.0787248,-0.928095,1.02825,0.0106736,0.00994174,1370,0.0043323,3.48611
3,1,Potentiostatic EIS,887.039,3.48614,-0.00749363,313329.875,0.924431,85.1821,0.0776417,-0.921165,0.976434,0.0107377,0.0099263,1355,0.00432452,3.48614
3,1,Potentiostatic EIS,887.656,3.48611,-0.00789495,310457,0.916379,85.097,0.0783221,-0.913026,1.04635,0.0108538,0.00994621,1340,0.00431621,3.48611
3,1,Potentiostatic EIS,888.269,3.48614,-0.00705179,307611,0.907922,85.1285,0.0771021,-0.904642,1.08687,0.0109409,0.00993351,1390,0.00451869,3.48614
3,1,Potentiostatic EIS,888.884,3.48612,-0.00745378,304790.875,0.901119,85.0856,0.0771958,-0.897806,1.19378,0.0110254,0.00993521,1375,0.00451129,3.48612
3,1,Potentiostatic EIS,889.505,3.4861,-0.00797112,301997,0.892561,85.0061,0.0776971,-0.889173,1.01148,0.0111319,0.00993594,1365,0.00451992,3.4861
3,1,Potentiostatic EIS,890.12,3.48611,-0.00737119,299228,0.88548,84.984,0.0774206,-0.882089,1.05813,0.0112191,0.00993434,1360,0.00454503,3.48611
3,1,Potentiostatic EIS,890.747,3.48611,-0.00774937,296484.5,0.878256,84.9639,0.0770969,-0.874866,1.05855,0.0113202,0.00994208,1350,0.00455336,3.48611
3,1,Potentiostatic EIS,891.399,3.48613,-0.00774108,293766,0.871512,84.8848,0.0777021,-0.868041,1.05813,0.0114236,0.00995581,1345,0.00457847,3.48613
3,1,Potentiostatic EIS,892.036,3.48611,-0.00768398,291073,0.862465,84.7716,0.0785933,-0.858876,0.867989,0.0115263,0.00994106,1340,0.00460366,3.48611
3,1,Potentiostatic EIS,892.666,3.48609,-0.00810315,288405,0.855183,84.7759,0.0778653,-0.851631,1.01307,0.0116328,0.00994808,1340,0.00464625,3.48609
3,1,Potentiostatic EIS,893.404,3.48609,-0.00816301,285760,0.847836,84.9113,0.0752014,-0.844494,1.04786,0.0117143,0.00993186,1340,0.00468924,3.48609
3,1,Potentiostatic EIS,894.041,3.48609,-0.00784321,283141,0.840319,84.7311,0.0771659,-0.836769,1.1025,0.0118136,0.00992731,1340,0.00473263,3.48609
3,1,Potentiostatic EIS,894.683,3.48608,-0.00838195,280545,0.83268,84.6774,0.0772421,-0.829089,1.14146,0.0118865,0.00989782,1345,0.00479424,3.48608
3,1,Potentiostatic EIS,895.338,3.4861,-0.00808692,277973,0.826951,84.6694,0.0768251,-0.823375,1.14552,0.0119782,0.00990552,1350,0.00485659,3.4861
3,1,Potentiostatic EIS,895.984,3.4861,-0.00815411,275424,0.819812,84.7595,0.0748794,-0.816385,0.925945,0.0120637,0.0098901,1355,0.00491968,3.4861
3,1,Potentiostatic EIS,896.628,3.48609,-0.00827163,272899,0.811484,84.6477,0.075695,-0.807946,0.963658,0.0121601,0.00986762,1365,0.00500185,3.48609
3,1,Potentiostatic EIS,897.275,3.4861,-0.0080639,270397,0.80433,84.7099,0.0741576,-0.800904,1.07003,0.0122703,0.00986958,1370,0.00506662,3.4861
3,1,Potentiostatic EIS,897.926,3.48609,-0.00831447,267918,0.797279,84.6493,0.0743469,-0.793805,1.09342,0.0123685,0.00986107,1385,0.00516949,3.48609
3,1,Potentiostatic EIS,898.585,3.48606,-0.00884765,265462,0.789927,84.642,0.0737625,-0.786475,0.95919,0.0124642,0.00984583,1340,0.0050478,3.48606
3,1,Potentiostatic EIS,899.239,3.48608,-0.00835999,263028,0.783202,84.5162,0.0748457,-0.779618,1.10859,0.0125647,0.00984076,1355,0.00515154,3.48608
3,1,Potentiostatic EIS,899.897,3.48608,-0.00837268,260616.75,0.777642,84.6016,0.0731608,-0.774193,0.987457,0.0126473,0.00983506,1370,0.00525676,3.48608
3,1,Potentiostatic EIS,900.564,3.48608,-0.008525,258227,0.770175,84.5116,0.073663,-0.766645,1.10623,0.0127442,0.00981503,1385,0.00536349,3.48608
3,1,Potentiostatic EIS,901.227,3.48609,-0.00808338,255860,0.763733,84.4983,0.0732226,-0.760215,1.13419,0.0128191,0.00978975,1350,0.00527632,3.48609
3,1,Potentiostatic EIS,901.899,3.48607,-0.00860253,253514,0.758438,84.4129,0.0738405,-0.754835,0.987686,0.0128937,0.00977882,1370,0.00540403,3.48607
3,1,Potentiostatic EIS,902.571,3.48608,-0.00848447,251190,0.750803,84.416,0.0730565,-0.74724,0.949934,0.0130278,0.00978166,1340,0.00533461,3.48608
3,1,Potentiostatic EIS,903.244,3.48608,-0.00838509,248887,0.744204,84.3508,0.0732579,-0.74059,1.10865,0.0131237,0.00976672,1365,0.00548441,3.48608
3,1,Potentiostatic EIS,903.919,3.48608,-0.00828872,246605,0.737584,84.3994,0.0719835,-0.734063,1.14339,0.0132162,0.00974829,1385,0.00561626,3.48608
3,1,Potentiostatic EIS,904.596,3.48607,-0.00886077,244344,0.730111,84.5003,0.0699745,-0.72675,1.15231,0.0133387,0.00973853,1360,0.00556591,3.48607
3,1,Potentiostatic EIS,905.277,3.48608,-0.00845353,242104,0.724414,84.3842,0.0708887,-0.720938,1.11712,0.0134181,0.00972002,1340,0.00553481,3.48608
3,1,Potentiostatic EIS,905.966,3.48609,-0.00803343,239885,0.718052,84.3281,0.0709659,-0.714537,1.04422,0.0135308,0.009716,1365,0.00569023,3.48609
3,1,Potentiostatic EIS,906.655,3.48606,-0.00850371,237685,0.712822,84.3724,0.069901,-0.709386,1.06485,0.0136232,0.0097116,1345,0.00565874,3.48606
3,1,Potentiostatic EIS,907.355,3.48606,-0.00821818,235506,0.705806,84.3332,0.0696931,-0.702356,1.13484,0.0137165,0.00968029,1380,0.00585972,3.48606
3,1,Potentiostatic EIS,908.052,3.48608,-0.00834871,233347,0.699143,84.4127,0.0680701,-0.695821,1.21668,0.0138395,0.00967591,1360,0.00582823,3.48608
3,1,Potentiostatic EIS,908.789,3.48606,-0.00862285,231208,0.694192,84.3546,0.0682891,-0.690825,1.01905,0.0143701,0.00997567,1350,0.0058389,3.48606
3,1,Potentiostatic EIS,909.552,3.48605,-0.00864743,229088.125,0.687672,84.3623,0.0675552,-0.684346,1.09055,0.0145181,0.00998373,1380,0.00602388,3.48605
3,1,Potentiostatic EIS,910.328,3.48606,-0.00839091,226988,0.681873,84.383,0.0667399,-0.678599,1.16337,0.0146298,0.00997565,1370,0.00603557,3.48606
3,1,Potentiostatic EIS,911.104,3.48606,-0.00853819,224907,0.676919,84.3745,0.0663558,-0.673659,1.02336,0.0147194,0.00996388,1360,0.00604695,3.48606
3,1,Potentiostatic EIS,911.878,3.48603,-0.0092516,222845,0.66954,84.3608,0.0657916,-0.666299,1.00874,0.0148718,0.00995727,1355,0.00608046,3.48603
3,1,Potentiostatic EIS,912.661,3.48605,-0.00863134,220802,0.662939,84.3712,0.0650226,-0.659743,1.03952,0.0150172,0.00995553,1350,0.00611408,3.48605
3,1,Potentiostatic EIS,913.446,3.48604,-0.00893125,218777,0.65808,84.2926,0.0654453,-0.654818,1.15838,0.0151347,0.00995985,1345,0.0061478,3.48604
3,1,Potentiostatic EIS,914.233,3.48605,-0.00857168,216771.75,0.651436,84.3201,0.0644732,-0.648237,1.03272,0.0152808,0.00995449,1345,0.00620468,3.48605
3,1,Potentiostatic EIS,915.03,3.48604,-0.00872255,214784,0.645634,84.2695,0.0644658,-0.642407,1.15006,0.0154017,0.0099439,1345,0.00626209,3.48604
3,1,Potentiostatic EIS,915.823,3.48604,-0.00901372,212815,0.640133,84.2981,0.0635987,-0.636966,1.11099,0.0155327,0.00994303,1345,0.00632004,3.48604
3,1,Potentiostatic EIS,916.623,3.48602,-0.00933592,210864,0.634579,84.1878,0.0642628,-0.631317,1.08118,0.0156623,0.00993895,1345,0.00637852,3.48602
3,1,Potentiostatic EIS,917.423,3.48604,-0.00917475,208931,0.627504,84.1381,0.0640877,-0.624223,1.14832,0.0158095,0.00992056,1350,0.00646146,3.48604
3,1,Potentiostatic EIS,918.222,3.48605,-0.00915692,207015,0.62318,84.1725,0.0632734,-0.619959,1.06208,0.0159559,0.00994341,1355,0.00654541,3.48605
3,1,Potentiostatic EIS,919.032,3.48603,-0.00912326,205118,0.615489,84.1108,0.0631526,-0.612241,1.09799,0.0161691,0.00995192,1365,0.00665472,3.48603
3,1,Potentiostatic EIS,919.842,3.48604,-0.0090837,203237,0.612312,84.0902,0.0630453,-0.609058,1.10729,0.0162407,0.00994443,1375,0.0067655,3.48604
3,1,Potentiostatic EIS,920.653,3.48603,-0.00906503,201374,0.604907,84.1538,0.0616151,-0.601761,1.23828,0.0163784,0.00990746,1385,0.00687776,3.48603
3,1,Potentiostatic EIS,921.484,3.48602,-0.00890356,199528,0.600369,84.0355,0.0623861,-0.597119,1.1814,0.0165413,0.0099309,1355,0.00679104,3.48602
3,1,Potentiostatic EIS,922.308,3.48603,-0.00909281,197698,0.595792,83.9642,0.062647,-0.59249,1.01187,0.0166883,0.00994278,1365,0.00690446,3.48603
3,1,Potentiostatic EIS,923.136,3.48603,-0.00881834,195886,0.590839,83.9546,0.0622252,-0.587554,1.02034,0.016807,0.0099303,1380,0.00704492,3.48603
3,1,Potentiostatic EIS,923.97,3.48603,-0.00907762,194090,0.585554,83.9759,0.0614519,-0.582321,0.998793,0.0169345,0.00991606,1360,0.00700706,3.48603
3,1,Potentiostatic EIS,924.807,3.48602,-0.00923761,192310,0.5799,84.0021,0.0605953,-0.576725,1.13782,0.0171064,0.00992002,1375,0.0071499,3.48602
3,1,Potentiostatic EIS,925.649,3.48601,-0.00960497,190547,0.576368,83.8901,0.0613463,-0.573094,1.21073,0.0172609,0.00994867,1355,0.00711109,3.48601
3,1,Potentiostatic EIS,926.495,3.48603,-0.00898016,188800,0.571333,83.8883,0.0608279,-0.568086,1.11994,0.0174192,0.00995224,1375,0.00728282,3.48603
3,1,Potentiostatic EIS,927.341,3.48603,-0.00886712,187070,0.566799,83.9302,0.0599335,-0.563622,1.19969,0.0175478,0.00994614,1360,0.00727002,3.48603
3,1,Potentiostatic EIS,928.194,3.48603,-0.00888075,185354,0.562132,83.7531,0.0611674,-0.558794,1.12568,0.0176995,0.00994948,1345,0.00725637,3.48603
3,1,Potentiostatic EIS,929.048,3.48602,-0.0091889,183655,0.557103,83.6597,0.0615225,-0.553696,1.23501,0.0178806,0.00996137,1370,0.00745963,3.48602
3,1,Potentiostatic EIS,929.912,3.48602,-0.0093523,181971,0.552817,83.7425,0.0602553,-0.549523,1.16628,0.0179603,0.00992881,1360,0.0074737,3.48602
3,1,Potentiostatic EIS,930.783,3.48602,-0.00891432,180303,0.547505,83.7476,0.0596281,-0.544248,1.11516,0.0182115,0.00997096,1350,0.00748739,3.48602
3,1,Potentiostatic EIS,931.648,3.48601,-0.00916085,178650,0.543816,83.6284,0.0603509,-0.540457,1.07026,0.018328,0.00996706,1380,0.0077246,3.48601
3,1,Potentiostatic EIS,932.524,3.48602,-0.00908705,177012,0.538311,83.5591,0.0603864,-0.534914,1.33938,0.0184944,0.00995576,1375,0.00776783,3.48602
3,1,Potentiostatic EIS,933.396,3.48601,-0.00908916,175389.375,0.534148,83.519,0.0602917,-0.530734,1.06482,0.0186385,0.00995575,1370,0.00781119,3.48601
3,1,Potentiostatic EIS,934.279,3.48601,-0.00904246,173781,0.529622,83.4128,0.0607562,-0.526126,1.1472,0.0188304,0.00997309,1365,0.0078547,3.48601
3,1,Potentiostatic EIS,935.18,3.48601,-0.00935888,172188,0.525209,83.3587,0.0607421,-0.521685,1.22032,0.0190002,0.00997915,1365,0.00792738,3.48601
3,1,Potentiostatic EIS,936.069,3.48599,-0.0096777,170609,0.520399,83.3802,0.0599916,-0.516929,1.13584,0.0191554,0.00996845,1365,0.00800073,3.48599
3,1,Potentiostatic EIS,936.973,3.48598,-0.00994139,169045,0.516148,83.3698,0.059595,-0.512696,1.13164,0.0192863,0.00995463,1365,0.00807476,3.48598
3,1,Potentiostatic EIS,937.87,3.48598,-0.00989998,167495,0.510987,83.2523,0.0600399,-0.507447,1.14977,0.0195032,0.00996592,1370,0.00817932,3.48598
3,1,Potentiostatic EIS,938.766,3.48596,-0.0105087,165960,0.506154,83.2481,0.0595089,-0.502644,1.10075,0.0196706,0.0099564,1375,0.00828513,3.48596
3,1,Potentiostatic EIS,939.674,3.48595,-0.0107128,164438,0.50231,83.2739,0.0588319,-0.498852,1.17053,0.0198562,0.00997399,1350,0.00820976,3.48595
3,1,Potentiostatic EIS,940.591,3.48598,-0.00999626,162930.875,0.497692,83.1061,0.0597384,-0.494094,1.26087,0.0200523,0.00997988,1355,0.00831641,3.48598
3,1,Potentiostatic EIS,941.511,3.48598,-0.0101408,161437,0.493983,83.1729,0.0587215,-0.490481,1.25634,0.0201878,0.00997246,1365,0.00845531,3.48598
3,1,Potentiostatic EIS,942.433,3.48597,-0.0103501,159957,0.489776,83.1913,0.0580653,-0.486322,1.2422,0.020357,0.00997043,1380,0.00862732,3.48597
3,1,Potentiostatic EIS,943.361,3.48598,-0.00980507,158491,0.484722,83.1065,0.0581787,-0.481218,1.16743,0.020568,0.00996978,1360,0.00858096,3.48598
3,1,Potentiostatic EIS,944.296,3.48598,-0.0100043,157037,0.481054,83.0842,0.0579243,-0.477554,1.14817,0.0207554,0.00998447,1375,0.00875587,3.48598
3,1,Potentiostatic EIS,945.239,3.48598,-0.0100029,155598,0.476704,83.0568,0.0576268,-0.473209,1.16459,0.0209155,0.00997058,1360,0.00874049,3.48598
3,1,Potentiostatic EIS,946.187,3.48598,-0.00997857,154171,0.472891,83.0922,0.0568759,-0.469459,1.111,0.0211126,0.00998398,1375,0.00891865,3.48598
3,1,Potentiostatic EIS,947.134,3.48596,-0.0102902,152758,0.468875,83.0342,0.056864,-0.465414,1.16631,0.0212432,0.00996045,1360,0.00890298,3.48596
3,1,Potentiostatic EIS,948.096,3.48595,-0.0102709,151357,0.464134,83.0333,0.0562959,-0.460708,1.25553,0.0214824,0.0099707,1350,0.00891929,3.48595
3,1,Potentiostatic EIS,949.065,3.48596,-0.0101021,149970,0.460615,83.0854,0.0554533,-0.457265,1.17856,0.0216603,0.00997709,1375,0.00916852,3.48596
3,1,Potentiostatic EIS,950.026,3.48595,-0.0104242,148594.75,0.456953,82.9819,0.0558317,-0.453529,1.14527,0.0218204,0.00997092,1365,0.00918606,3.48595
3,1,Potentiostatic EIS,951.077,3.48596,-0.0102437,147232,0.452809,82.9993,0.0551893,-0.449433,1.27112,0.021994,0.00995912,1360,0.0092371,3.48596
3,1,Potentiostatic EIS,952.179,3.48596,-0.0102362,145883,0.447867,83.0924,0.053864,-0.444616,1.17549,0.022198,0.00994178,1355,0.00928829,3.48596
3,1,Potentiostatic EIS,953.159,3.48592,-0.01092,144545,0.444363,82.9716,0.0543731,-0.441024,1.17462,0.0224271,0.00996576,1355,0.00937423,3.48592
3,1,Potentiostatic EIS,954.144,3.48593,-0.0109585,143220,0.440123,82.9488,0.0540278,-0.436794,1.16059,0.0226709,0.009978,1355,0.00946098,3.48593
3,1,Potentiostatic EIS,955.131,3.48591,-0.0113441,141907,0.436775,82.9957,0.0532619,-0.433515,1.17047,0.0227884,0.00995343,1355,0.00954851,3.48591
3,1,Potentiostatic EIS,956.134,3.48593,-0.0108546,140606,0.43327,82.9233,0.0533779,-0.429969,1.28274,0.023049,0.00998644,1355,0.00963687,3.48593
3,1,Potentiostatic EIS,957.139,3.48593,-0.0112161,139317,0.429587,82.8226,0.0536737,-0.426221,1.20197,0.023255,0.00999005,1360,0.00976192,3.48593
3,1,Potentiostatic EIS,958.146,3.48594,-0.010778,138040,0.42622,82.896,0.0527109,-0.422948,1.15577,0.0233838,0.00996667,1365,0.00988847,3.48594
3,1,Potentiostatic EIS,959.165,3.48592,-0.0111486,136774,0.422958,82.7908,0.0530779,-0.419614,1.33232,0.0235419,0.00995725,1375,0.0100531,3.48592
3,1,Potentiostatic EIS,960.182,3.48591,-0.0111946,135520,0.418733,82.7929,0.0525325,-0.415425,1.26847,0.0238804,0.00999947,1355,0.00999852,3.48591
3,1,Potentiostatic EIS,961.21,3.48594,-0.0110546,134277.625,0.415444,82.6493,0.0531532,-0.41203,1.29121,0.0240461,0.00998981,1365,0.0101655,3.48594
3,1,Potentiostatic EIS,962.24,3.48593,-0.0107156,133047,0.412376,82.6416,0.0528152,-0.40898,1.16975,0.0241891,0.00997503,1350,0.0101468,3.48593
3,1,Potentiostatic EIS,963.274,3.48591,-0.0111241,131826.75,0.408219,82.4898,0.0533554,-0.404717,1.39217,0.0244329,0.00997396,1365,0.0103545,3.48591
3,1,Potentiostatic EIS,964.322,3.48593,-0.0104371,130618,0.405341,82.493,0.0529564,-0.401867,1.1976,0.0246242,0.00998121,1350,0.0103355,3.48593
3,1,Potentiostatic EIS,965.381,3.48591,-0.0111843,129421,0.401667,82.5497,0.0520827,-0.398276,1.29121,0.0248133,0.00996674,1365,0.010547,3.48591
3,1,Potentiostatic EIS,966.437,3.48591,-0.0112546,128234,0.398192,82.425,0.0524913,-0.394717,1.16046,0.0250703,0.0099828,1360,0.0106056,3.48591
3,1,Potentiostatic EIS,967.499,3.4859,-0.0113585,127058,0.394991,82.3023,0.0529076,-0.391432,1.25312,0.0252791,0.00998505,1350,0.010625,3.4859
3,1,Potentiostatic EIS,968.561,3.4859,-0.0111386,125894,0.391245,82.2725,0.0526074,-0.387692,1.27982,0.0255005,0.00997697,1370,0.0108822,3.4859
3,1,Potentiostatic EIS,969.636,3.48591,-0.0108722,124739,0.388277,82.307,0.0519765,-0.384783,1.32964,0.0257163,0.00998511,1370,0.0109829,3.48591
3,1,Potentiostatic EIS,970.714,3.4859,-0.0113633,123596,0.384644,82.2735,0.0517132,-0.381152,1.41614,0.0259851,0.00999504,1365,0.0110441,3.4859
3,1,Potentiostatic EIS,971.798,3.4859,-0.0112225,122463,0.381678,82.049,0.0527959,-0.378009,1.31427,0.0261741,0.00999008,1365,0.0111463,3.4859
3,1,Potentiostatic EIS,972.899,3.48592,-0.0108489,121340,0.377634,82.0874,0.0519859,-0.374038,1.27804,0.0264486,0.00998789,1370,0.0112906,3.48592
3,1,Potentiostatic EIS,974,3.48591,-0.0106643,120228,0.374683,82.1426,0.0512219,-0.371165,1.10225,0.0266683,0.00999218,1370,0.0113951,3.48591
3,1,Potentiostatic EIS,975.101,3.48591,-0.0105654,119125,0.372083,82.0873,0.0512227,-0.36854,1.1951,0.0268152,0.00997748,1375,0.0115425,3.48591
3,1,Potentiostatic EIS,976.222,3.4859,-0.0111208,118033.125,0.368414,81.9723,0.05145,-0.364804,1.2508,0.0270712,0.00997344,1355,0.0114798,3.4859
3,1,Potentiostatic EIS,977.336,3.48592,-0.0108414,116951,0.365353,82.0171,0.0507395,-0.361812,1.21997,0.0273281,0.00998438,1365,0.0116716,3.48592
3,1,Potentiostatic EIS,978.459,3.48591,-0.0111493,115879,0.362398,82.0002,0.0504349,-0.358872,1.24342,0.027588,0.00999791,1375,0.0118658,3.48591
3,1,Potentiostatic EIS,979.585,3.48591,-0.0109246,114816,0.358554,81.928,0.0503475,-0.355002,1.22733,0.0278262,0.00997721,1360,0.011845,3.48591
3,1,Potentiostatic EIS,980.734,3.4859,-0.0110629,113763.75,0.355406,81.7613,0.050929,-0.351738,1.3011,0.0280775,0.00997893,1370,0.0120425,3.4859
3,1,Potentiostatic EIS,981.884,3.48588,-0.0115813,112721,0.352434,81.858,0.049914,-0.348882,1.57489,0.0283232,0.00998212,1365,0.0121096,3.48588
3,1,Potentiostatic EIS,983.038,3.48589,-0.0110289,111687,0.349519,81.8184,0.0497405,-0.345961,1.29186,0.0285932,0.0099939,1355,0.0121321,3.48589
3,1,Potentiostatic EIS,984.194,3.48588,-0.0112908,110663,0.346532,81.7164,0.0499261,-0.342916,1.36263,0.0288353,0.0099924,1370,0.0123799,3.48588
3,1,Potentiostatic EIS,985.366,3.48588,-0.0115544,109649,0.343955,81.7529,0.0493378,-0.340398,1.24139,0.0289808,0.00996812,1365,0.0124488,3.48588
3,1,Potentiostatic EIS,986.546,3.48587,-0.0110611,108644,0.340495,81.6928,0.0491952,-0.336923,1.29103,0.0293033,0.00997768,1365,0.012564,3.48587
3,1,Potentiostatic EIS,987.733,3.48588,-0.0115458,107647,0.337741,81.6425,0.0490903,-0.334154,1.3811,0.0294538,0.00994776,1365,0.0126803,3.48588
3,1,Potentiostatic EIS,988.919,3.48585,-0.0120722,106661,0.334232,81.6946,0.0482797,-0.330726,1.35301,0.0297981,0.00995947,1365,0.0127976,3.48585
3,1,Potentiostatic EIS,990.117,3.48586,-0.0120399,105683,0.331322,81.6056,0.0483685,-0.327772,1.23594,0.030009,0.00994255,1365,0.012916,3.48586
3,1,Potentiostatic EIS,991.322,3.48585,-0.0119281,104714,0.328625,81.5981,0.0480173,-0.325098,1.27801,0.030202,0.00992508,1370,0.0130833,3.48585
3,1,Potentiostatic EIS,992.53,3.48587,-0.0116843,103754,0.325391,81.6032,0.047516,-0.321903,1.43772,0.0304484,0.00990753,1355,0.0130598,3.48587
3,1,Potentiostatic EIS,993.753,3.48584,-0.0119012,102803,0.323453,81.5251,0.0476693,-0.319921,1.32093,0.0306186,0.00990385,1360,0.0132292,3.48584
3,1,Potentiostatic EIS,994.971,3.48585,-0.0118931,101860,0.320141,81.4618,0.0475309,-0.316593,1.50021,0.0309005,0.00989251,1370,0.0134498,3.48585
3,1,Potentiostatic EIS,996.202,3.48586,-0.011864,100926,0.317335,81.4841,0.046992,-0.313837,1.37394,0.0311446,0.0098835,1360,0.0134752,3.48586
3,1,Potentiostatic EIS,997.436,3.48587,-0.0115261,100001,0.314583,81.3662,0.047225,-0.311019,1.48045,0.031366,0.00986722,1370,0.0136999,3.48587
3,1,Potentiostatic EIS,998.588,3.48587,-0.0114863,99084.2,0.312328,81.3446,0.0470025,-0.308771,1.41518,0.0318705,0.00995405,1360,0.0137257,3.48587
3,1,Potentiostatic EIS,999.745,3.48583,-0.0123384,98175.7,0.308869,81.3032,0.0467025,-0.305318,1.46511,0.0322776,0.00996964,1355,0.0138018,3.48583
3,1,Potentiostatic EIS,1000.9,3.48583,-0.0122203,97275.6,0.306658,81.3664,0.0460343,-0.303183,1.48062,0.0325022,0.00996712,1370,0.0140837,3.48583
3,1,Potentiostatic EIS,1002.08,3.48583,-0.0118942,96383.8,0.303957,81.2881,0.046039,-0.30045,1.57522,0.0327493,0.00995439,1370,0.014214,3.48583
3,1,Potentiostatic EIS,1003.26,3.48583,-0.0116075,95500.1,0.301599,81.2677,0.0457883,-0.298103,1.33786,0.0330441,0.00996612,1370,0.0143455,3.48583
3,1,Potentiostatic EIS,1004.44,3.48583,-0.0116975,94624.6,0.298993,81.1655,0.0459196,-0.295446,1.26653,0.0333179,0.00996188,1370,0.0144783,3.48583
3,1,Potentiostatic EIS,1005.62,3.48583,-0.0120221,93757.1,0.296834,81.0667,0.0460936,-0.293233,1.38782,0.0336225,0.00998031,1370,0.0146122,3.48583
3,1,Potentiostatic EIS,1006.82,3.48582,-0.0122165,92897.6,0.293745,81.1189,0.0453497,-0.290223,1.36662,0.0339836,0.00998253,1355,0.014586,3.48582
3,1,Potentiostatic EIS,1008.03,3.48582,-0.0123557,92045.9,0.291329,81.125,0.0449459,-0.287841,1.48826,0.0342855,0.00998843,1365,0.0148296,3.48582
3,1,Potentiostatic EIS,1009.24,3.48582,-0.0121848,91202,0.289107,81.0846,0.0448049,-0.285614,1.45169,0.0345213,0.00998036,1370,0.0150216,3.48582
3,1,Potentiostatic EIS,1010.45,3.48579,-0.0129258,90365.9,0.286446,81.106,0.0442867,-0.283002,1.42348,0.0348813,0.00999165,1360,0.0150499,3.48579
3,1,Potentiostatic EIS,1011.68,3.48582,-0.0122884,89537.4,0.284268,80.9598,0.0446664,-0.280737,1.45345,0.0351596,0.00999482,1370,0.0153009,3.48582
3,1,Potentiostatic EIS,1012.92,3.48581,-0.0123432,88716.5,0.28205,80.9035,0.0445916,-0.278503,1.28168,0.0354281,0.00999256,1365,0.0153861,3.48581
3,1,Potentiostatic EIS,1014.17,3.48582,-0.0120306,87903.1,0.279443,80.9168,0.0441154,-0.275939,1.51973,0.0357592,0.00999269,1360,0.0154716,3.48582
3,1,Potentiostatic EIS,1015.42,3.4858,-0.0121056,87097.2,0.276866,80.7781,0.0443703,-0.273288,1.4938,0.0361153,0.00999918,1355,0.0155573,3.4858
3,1,Potentiostatic EIS,1016.68,3.48579,-0.0127041,86298.7,0.275519,80.6858,0.0445924,-0.271886,1.38355,0.0363443,0.0100137,1355,0.0157013,3.48579
3,1,Potentiostatic EIS,1017.95,3.48579,-0.0126758,85507.5,0.272644,80.674,0.0441826,-0.26904,1.39007,0.0366505,0.00999254,1355,0.0158466,3.48579
3,1,Potentiostatic EIS,1019.24,3.4858,-0.0123613,84723.625,0.270535,80.6195,0.0440944,-0.266917,1.36136,0.0369996,0.0100097,1355,0.0159932,3.4858
3,1,Potentiostatic EIS,1020.52,3.48578,-0.0123262,83946.8,0.267806,80.6478,0.0435194,-0.264246,1.53329,0.0373765,0.0100097,1360,0.0162007,3.48578
3,1,Potentiostatic EIS,1021.82,3.4858,-0.0117381,83177.3,0.265483,80.5644,0.043523,-0.261892,1.41532,0.0376327,0.00999089,1365,0.0164107,3.4858
3,1,Potentiostatic EIS,1023.13,3.48581,-0.0116264,82414.7,0.263303,80.4347,0.0437535,-0.259642,1.3804,0.0378674,0.0099706,1370,0.0166233,3.48581
3,1,Potentiostatic EIS,1024.44,3.48581,-0.0116854,81659.1,0.261355,80.3513,0.0438047,-0.257658,1.31724,0.0381776,0.00997793,1360,0.0166546,3.48581
3,1,Potentiostatic EIS,1025.77,3.48579,-0.0117863,80910.4,0.259434,80.3546,0.0434682,-0.255767,1.25843,0.038523,0.00999421,1355,0.0167469,3.48579
3,1,Potentiostatic EIS,1027.09,3.48578,-0.0123057,80168.6,0.256795,80.2211,0.0436158,-0.253064,1.4963,0.0389574,0.0100041,1365,0.0170266,3.48578
3,1,Potentiostatic EIS,1028.43,3.48577,-0.0126327,79433.6,0.254483,80.1054,0.0437293,-0.250698,1.44101,0.0392791,0.00999584,1365,0.0171842,3.48577
3,1,Potentiostatic EIS,1029.79,3.48577,-0.012443,78705.4,0.252235,80.1097,0.0433244,-0.248487,1.42848,0.039602,0.00998902,1360,0.0172796,3.48577
3,1,Potentiostatic EIS,1031.14,3.48578,-0.012339,77983.8,0.250347,80.1383,0.042877,-0.246648,1.57309,0.0399712,0.0100066,1360,0.0174395,3.48578
3,1,Potentiostatic EIS,1032.51,3.48577,-0.0123542,77268.9,0.247922,80.1259,0.0425145,-0.244249,1.3819,0.0403127,0.00999445,1360,0.0176009,3.48577
3,1,Potentiostatic EIS,1033.88,3.48576,-0.0127669,76560.5,0.246109,80.0595,0.0424848,-0.242415,1.44353,0.0405955,0.00999104,1365,0.017829,3.48576
3,1,Potentiostatic EIS,1035.26,3.48577,-0.0124639,75858.6,0.24391,80.0262,0.0422447,-0.240224,1.37992,0.0409739,0.0099939,1370,0.0180599,3.48577
3,1,Potentiostatic EIS,1036.66,3.48578,-0.0123435,75163,0.241754,79.952,0.0421795,-0.238046,1.60498,0.0413114,0.00998723,1360,0.018094,3.48578
3,1,Potentiostatic EIS,1038.07,3.48577,-0.0124278,74474,0.239855,79.8769,0.0421577,-0.236121,1.59154,0.0416937,0.0100005,1365,0.0183286,3.48577
3,1,Potentiostatic EIS,1039.49,3.48574,-0.0127708,73791.2,0.237487,79.9122,0.0415976,-0.233816,1.35785,0.0420624,0.00998929,1360,0.0184304,3.48574
3,1,Potentiostatic EIS,1040.91,3.48575,-0.0128451,73114.7,0.235358,79.782,0.041751,-0.231625,1.38861,0.0423526,0.00996807,1355,0.0185325,3.48575
3,1,Potentiostatic EIS,1042.34,3.48572,-0.0133099,72444.3,0.233771,79.7371,0.04165,-0.230031,1.54486,0.0427632,0.00999685,1370,0.0189111,3.48572
3,1,Potentiostatic EIS,1043.78,3.48572,-0.0135365,71780.2,0.231758,79.6504,0.0416364,-0.227988,1.37532,0.0430103,0.00996802,1365,0.0190164,3.48572
3,1,Potentiostatic EIS,1045.23,3.48572,-0.0138329,71122.125,0.22941,79.7056,0.0409967,-0.225717,1.557,0.0434452,0.00996678,1365,0.0191923,3.48572
3,1,Potentiostatic EIS,1046.7,3.4857,-0.0138258,70470.1,0.22743,79.5527,0.04124,-0.22366,1.61079,0.0438848,0.00998077,1370,0.0194409,3.4857
3,1,Potentiostatic EIS,1048.18,3.48575,-0.0122284,69824,0.225639,79.7206,0.040265,-0.222017,1.51761,0.0442421,0.00998276,1360,0.0194776,3.48575
3,1,Potentiostatic EIS,1049.66,3.48573,-0.0126761,69183.9,0.22401,79.6715,0.0401632,-0.22038,1.5857,0.0444264,0.00995201,1365,0.01973,3.48573
3,1,Potentiostatic EIS,1051.16,3.48573,-0.012783,68549.5,0.221776,79.586,0.040088,-0.218122,1.47668,0.0448074,0.00993717,1355,0.0197667,3.48573
3,1,Potentiostatic EIS,1052.67,3.48573,-0.0127517,67921.1,0.219835,79.4488,0.0402548,-0.216118,1.42973,0.045287,0.00995571,1365,0.0200969,3.48573
3,1,Potentiostatic EIS,1054.19,3.4857,-0.0134088,67298.4,0.218314,79.4071,0.0401324,-0.214593,1.59297,0.0454972,0.00993269,1360,0.0202085,3.4857
3,1,Potentiostatic EIS,1055.72,3.48572,-0.0129122,66681.4,0.216094,79.4122,0.0397055,-0.212415,1.58873,0.0459657,0.00993296,1360,0.0203955,3.48572
3,1,Potentiostatic EIS,1056.23,3.48574,-0.012835,66070.1,0.214302,79.4101,0.0393839,-0.210651,1.518,0.0463016,0.00992257,1350,0.0204329,3.48574
3,1,Potentiostatic EIS,1056.74,3.48572,-0.0128868,65464.3,0.212713,79.3153,0.039438,-0.209025,1.43564,0.0466205,0.00991672,1340,0.0204692,3.48572
3,1,Potentiostatic EIS,1057.25,3.48573,-0.0128831,64864.2,0.210437,79.2911,0.0391034,-0.206772,1.56943,0.0470591,0.00990305,1325,0.0204273,3.48573
3,1,Potentiostatic EIS,1057.75,3.48572,-0.0135683,64269.5,0.208633,79.3126,0.0386913,-0.205014,1.42837,0.0475099,0.00991217,1315,0.0204607,3.48572
3,1,Potentiostatic EIS,1058.26,3.48575,-0.0126445,63680.3,0.2073,79.167,0.0389612,-0.203606,1.62369,0.0477099,0.00989039,1300,0.0204145,3.48575
3,1,Potentiostatic EIS,1058.77,3.48572,-0.0130375,63096.5,0.205343,79.1317,0.0387178,-0.201659,1.4933,0.0481222,0.0098814,1290,0.0204449,3.48572
3,1,Potentiostatic EIS,1059.27,3.48575,-0.0117474,62518,0.203625,79.0702,0.0386083,-0.199931,1.45241,0.0484816,0.00987181,1280,0.0204741,3.48575
3,1,Potentiostatic EIS,1059.79,3.48575,-0.0122931,61944.8,0.202211,79.0251,0.0384968,-0.198513,1.50084,0.0487783,0.0098636,1265,0.0204214,3.48575
3,1,Potentiostatic EIS,1060.29,3.48572,-0.0119587,61377,0.200585,78.9109,0.0385795,-0.19684,1.739,0.0491497,0.00985865,1255,0.0204474,3.48572
3,1,Potentiostatic EIS,1060.79,3.48575,-0.0124169,60814.2,0.198736,78.9003,0.0382599,-0.195018,1.60012,0.0495232,0.0098422,1245,0.0204722,3.48575
3,1,Potentiostatic EIS,1061.3,3.48574,-0.012229,60256.7,0.197206,78.7916,0.0383327,-0.193445,1.54767,0.0500003,0.00986045,1230,0.0204127,3.48574
3,1,Potentiostatic EIS,1061.81,3.48572,-0.0132718,59704.2,0.195454,78.7108,0.0382624,-0.191672,1.66544,0.0504025,0.00985136,1220,0.0204341,3.48572
3,1,Potentiostatic EIS,1062.32,3.48573,-0.0126045,59156.9,0.193894,78.6735,0.0380807,-0.190117,1.45667,0.0507564,0.00984115,1210,0.0204541,3.48573
3,1,Potentiostatic EIS,1062.82,3.4857,-0.0129061,58614.5,0.1926,78.6077,0.0380435,-0.188805,1.5324,0.0510895,0.00983985,1200,0.0204728,3.4857
3,1,Potentiostatic EIS,1063.33,3.48572,-0.0125408,58077.1,0.190818,78.5157,0.0379917,-0.186998,1.58973,0.0515452,0.00983565,1185,0.0204039,3.48572
3,1,Potentiostatic EIS,1063.83,3.4857,-0.0128921,57544.7,0.189188,78.4352,0.0379278,-0.185347,1.58824,0.0519555,0.00982963,1175,0.0204189,3.4857
3,1,Potentiostatic EIS,1064.35,3.4857,-0.0129483,57017.1,0.187368,78.32,0.0379318,-0.183489,1.65235,0.0523521,0.00980909,1165,0.0204325,3.4857
3,1,Potentiostatic EIS,1064.86,3.48571,-0.0129996,56494.4,0.186237,78.3599,0.0375759,-0.182407,1.50836,0.0527156,0.00981783,1155,0.0204445,3.48571
3,1,Potentiostatic EIS,1065.37,3.48573,-0.0127681,55976.4,0.184401,78.2768,0.0374674,-0.180555,1.5071,0.0532915,0.00982715,1145,0.020455,3.48573
3,1,Potentiostatic EIS,1065.88,3.48571,-0.0128026,55463.2,0.182879,78.225,0.0373202,-0.179031,1.60543,0.0536365,0.00980911,1135,0.020464,3.48571
3,1,Potentiostatic EIS,1066.39,3.48568,-0.0129063,54954.7,0.181421,78.1789,0.0371652,-0.177573,1.64558,0.0540978,0.00981474,1125,0.0204714,3.48568
3,1,Potentiostatic EIS,1066.9,3.48572,-0.0134458,54450.9,0.179747,78.1294,0.0369745,-0.175903,1.57764,0.0544805,0.00979209,1115,0.0204772,3.48572
3,1,Potentiostatic EIS,1067.4,3.48569,-0.0134325,53951.7,0.178207,78.0346,0.036946,-0.174335,1.76784,0.0549294,0.00978883,1100,0.0203886,3.48569
3,1,Potentiostatic EIS,1067.91,3.4857,-0.01356,53457.1,0.176591,78.0026,0.0367075,-0.172734,1.64079,0.0553573,0.00977501,1090,0.0203902,3.4857
3,1,Potentiostatic EIS,1068.42,3.48569,-0.0135958,52967,0.175177,77.8674,0.0368177,-0.171265,1.54948,0.0558574,0.00978463,1080,0.02039,3.48569
3,1,Potentiostatic EIS,1068.93,3.48568,-0.0140241,52481.4,0.173896,77.8714,0.0365365,-0.170014,1.50553,0.0561726,0.00976806,1070,0.0203882,3.48568
3,1,Potentiostatic EIS,1069.43,3.4857,-0.0136368,52000.2,0.172379,77.8827,0.0361848,-0.168538,1.62149,0.0566213,0.00976041,1060,0.0203845,3.4857
3,1,Potentiostatic EIS,1069.94,3.48569,-0.0136002,51523.5,0.170862,77.818,0.0360548,-0.167014,1.71342,0.0570522,0.00974727,1055,0.0204761,3.48569
3,1,Potentiostatic EIS,1070.45,3.48567,-0.0137407,51051.1,0.169125,77.6468,0.0361822,-0.16521,1.60734,0.0576445,0.00974925,1045,0.0204697,3.48567
3,1,Potentiostatic EIS,1070.97,3.48567,-0.0142043,50583.1,0.167776,77.599,0.0360303,-0.163862,1.76317,0.0580099,0.00973274,1035,0.0204614,3.48567
3,1,Potentiostatic EIS,1071.48,3.48568,-0.0138733,50119.3,0.16633,77.6364,0.0356137,-0.162472,1.57547,0.0585602,0.00974119,1025,0.0204512,3.48568
3,1,Potentiostatic EIS,1071.74,3.48568,-0.0135861,50000,0.165577,77.5491,0.0356989,-0.161683,1.49718,0.058724,0.00972343,1020,0.0204,3.48568