File: Data/P190_03/EIS_04_P190_03_5/2_EIS_04_P190_03_5 20230912 115043.csv
Step number,Repeats,Step name,Elapsed Time  (s),DC Working Electrode (V),DC Current (A),Frequency (Hz),|Z| (Ohms),Phase (deg),Z' (Ohms),-Z" (Ohms),THD (%),Amplitude (A),Amplitude (V),No of Cycles,Duration of Each Frequency (s),IR Compensated DC Working Electrode (V)
2,1,Potentiostatic EIS,0,3.514,-0.0135914,1000000,3.55472,88.2108,0.110988,-3.55299,1.39752,0.00279326,0.00992929,1430,0.00143,3.514
2,1,Potentiostatic EIS,0.232465,3.51395,-0.0146322,794328,2.84185,88.0018,0.0990884,-2.84012,1.48327,0.00348859,0.00991422,1445,0.00181915,3.51395
2,1,Potentiostatic EIS,0.471047,3.51392,-0.0154897,630957.375,2.26308,87.4676,0.0999928,-2.26087,1.1654,0.00438733,0.00992906,1355,0.00214753,3.51392
2,1,Potentiostatic EIS,0.72046,3.51388,-0.0164663,501187.25,1.80296,87.4882,0.0790148,-1.80123,1.53192,0.0053615,0.00966797,1385,0.00276344,3.51388
2,1,Potentiostatic EIS,1.00308,3.51384,-0.0175063,398107,1.44315,86.7605,0.0815509,-1.44084,1.50155,0.00690301,0.00996206,1400,0.00351664,3.51384
2,1,Potentiostatic EIS,1.30509,3.5138,-0.0185187,316228,1.1457,86.4445,0.0710509,-1.14349,1.45428,0.00867025,0.00993358,1370,0.00433232,3.5138
2,1,Potentiostatic EIS,1.76324,3.51377,-0.0193213,251189,0.925084,85.6807,0.0696721,-0.922457,1.47835,0.0107777,0.00997028,1340,0.00533464,3.51377
2,1,Potentiostatic EIS,2.13968,3.51369,-0.0215075,199526,0.736332,85.5673,0.0569094,-0.734129,1.55252,0.0132795,0.0097774,1355,0.00679109,3.51369
2,1,Potentiostatic EIS,2.60654,3.51362,-0.0226189,158489,0.592422,84.686,0.054867,-0.589876,1.62365,0.0168101,0.00995873,1360,0.00858102,3.51362
2,1,Potentiostatic EIS,3.36552,3.51358,-0.024121,125893,0.475606,84.185,0.0481872,-0.473159,1.77546,0.0209898,0.00998294,1370,0.0108823,3.51358
2,1,Potentiostatic EIS,3.99096,3.51349,-0.026157,100000,0.381321,83.3642,0.0440644,-0.378767,2.07958,0.0261452,0.00996978,1370,0.0137,3.51349
2,1,Potentiostatic EIS,4.66257,3.51343,-0.027827,79432.8,0.306867,82.4563,0.0402864,-0.304211,2.28614,0.0325864,0.0099998,1365,0.0171843,3.51343
2,1,Potentiostatic EIS,4.91338,3.51338,-0.0302214,63095.7,0.24614,81.542,0.0362033,-0.243463,1.86764,0.0405829,0.00998916,1290,0.0204451,3.51338
2,1,Potentiostatic EIS,5.16838,3.51327,-0.0328419,50118.75,0.197197,80.5643,0.0323286,-0.194529,2.2959,0.0507482,0.0100077,1025,0.0204514,3.51327
2,1,Potentiostatic EIS,5.51546,3.51325,-0.0322981,39810.7,0.159969,78.7719,0.0311484,-0.156908,2.03151,0.0622034,0.00995063,815,0.0204719,3.51325
2,1,Potentiostatic EIS,5.86269,3.51376,-0.0168227,31622.8,0.129779,76.7778,0.0296842,-0.126338,4.90097,0.0771543,0.010013,645,0.0203967,3.51376
2,1,Potentiostatic EIS,6.06892,3.51409,-0.00580001,25118.9,0.105372,74.645,0.0279023,-0.10161,5.494,0.0925659,0.00975449,510,0.0203034,3.51409
2,1,Potentiostatic EIS,6.27659,3.51413,-0.00529676,19952.6,0.0854637,71.8393,0.0266376,-0.0812064,6.20599,0.114896,0.00982025,405,0.0202981,3.51413
2,1,Potentiostatic EIS,6.4782,3.51416,-0.00426928,15848.9,0.0696296,68.5364,0.0254782,-0.0648008,6.67568,0.141196,0.00983184,320,0.0201906,3.51416
2,1,Potentiostatic EIS,6.68942,3.51421,-0.00382571,12589.2,0.0576084,64.6265,0.0246862,-0.0520511,6.98922,0.172811,0.00995551,255,0.0202554,3.51421
2,1,Potentiostatic EIS,6.94923,3.51436,-0.00400271,9999.98,0.0482016,60.233,0.0239309,-0.0418415,3.47208,0.207459,0.00999989,307,0.0307001,3.51436
2,1,Potentiostatic EIS,7.16391,3.51435,-0.00406734,7943.27,0.0409407,55.5951,0.023133,-0.0337787,4.28138,0.258404,0.0105792,244,0.0307178,3.51435
2,1,Potentiostatic EIS,7.37592,3.51438,-0.00340203,6309.57,0.0342232,50.0634,0.0219692,-0.0262408,4.97749,0.306472,0.0104885,193,0.0305885,3.51438
2,1,Potentiostatic EIS,7.58768,3.5144,-0.00262072,5011.87,0.0302093,42.4179,0.0223018,-0.0203771,5.13394,0.342417,0.0103442,153,0.0305276,3.5144
2,1,Potentiostatic EIS,7.79998,3.51441,-0.0024721,3981.07,0.0275015,35.5245,0.0223826,-0.0159798,4.96564,0.371521,0.0102174,122,0.0306451,3.51441
2,1,Potentiostatic EIS,7.96729,3.51444,-0.0016808,3162.27,0.025609,29.1333,0.0223692,-0.0124676,4.73733,0.350725,0.00898171,97,0.0306742,3.51444
2,1,Potentiostatic EIS,8.13513,3.51443,-0.0019646,2511.88,0.0243815,23.0937,0.0224277,-0.00956332,4.17543,0.430555,0.0104976,77,0.0306543,3.51443
2,1,Potentiostatic EIS,8.3026,3.51446,-0.000893819,1995.26,0.0236176,17.6947,0.0225002,-0.00717845,3.58097,0.436058,0.0102986,61,0.0305725,3.51446
2,1,Potentiostatic EIS,8.47151,3.51447,-0.00062264,1584.89,0.0232357,13.0781,0.022633,-0.00525776,3.15075,0.436796,0.0101492,48,0.030286,3.51447
2,1,Potentiostatic EIS,8.59547,3.51449,-0.000560864,1258.92,0.0231076,9.07301,0.0228184,-0.0036439,2.9345,0.39023,0.00901726,38,0.0301845,3.51449
2,1,Potentiostatic EIS,8.71738,3.51447,-0.000689727,999.999,0.0231947,5.76788,0.0230773,-0.00233104,2.56373,0.445403,0.010331,30,0.03,3.51447
2,1,Potentiostatic EIS,8.84002,3.51449,-0.000383655,794.328,0.023399,3.05747,0.0233657,-0.00124804,2.29639,0.435055,0.0101798,24,0.0302142,3.51449
2,1,Potentiostatic EIS,8.96384,3.51449,-0.000340795,630.956,0.0237204,0.827719,0.0237179,-0.000342662,2.12129,0.425579,0.0100949,19,0.030113,3.51449
2,1,Potentiostatic EIS,9.08785,3.5145,4.79195e-05,501.187,0.0241107,-0.956206,0.0241073,0.000402363,2.00022,0.417246,0.0100601,15,0.029929,3.5145
2,1,Potentiostatic EIS,9.16804,3.5145,0.000115678,398.107,0.024581,-2.3602,0.0245601,0.00101229,1.98369,0.348993,0.0085786,12,0.0301427,3.5145
2,1,Potentiostatic EIS,9.24707,3.5145,4.48572e-05,316.228,0.0250513,-3.42567,0.0250066,0.00149691,1.82259,0.363287,0.00910082,9,0.0284605,3.5145
2,1,Potentiostatic EIS,9.32825,3.5145,0.000240721,251.189,0.0255791,-4.2021,0.0255104,0.0018743,1.66179,0.369427,0.00944963,8,0.0318486,3.5145
2,1,Potentiostatic EIS,9.41755,3.51451,0.00037933,199.526,0.0261086,-4.73398,0.0260195,0.00215473,1.49286,0.369786,0.00965459,8,0.0400951,3.51451
2,1,Potentiostatic EIS,9.51642,3.51451,0.000436216,158.489,0.0266462,-5.04414,0.026543,0.00234282,1.28153,0.366706,0.00977132,8,0.0504766,3.51451
2,1,Potentiostatic EIS,9.62947,3.51451,0.00044594,125.892,0.0271837,-5.22135,0.0270709,0.00247382,1.12492,0.362007,0.00984071,8,0.0635464,3.51451
2,1,Potentiostatic EIS,9.75819,3.5145,0.000321454,100,0.0276944,-5.2716,0.0275772,0.00254448,0.922617,0.356377,0.00986965,8,0.08,3.5145
2,1,Potentiostatic EIS,9.90994,3.5145,0.000100873,79.4327,0.0281946,-5.1943,0.0280788,0.00255255,0.800926,0.350689,0.00988752,8,0.100714,3.5145
2,1,Potentiostatic EIS,10.0901,3.5145,1.57533e-06,63.0956,0.0286614,-5.00381,0.0285521,0.0024999,0.651135,0.345177,0.00989323,8,0.126792,3.5145
2,1,Potentiostatic EIS,10.3052,3.51452,0.000654733,50.1186,0.029103,-4.77003,0.0290022,0.0024201,0.490206,0.332178,0.00966737,8,0.159621,3.51452
2,1,Potentiostatic EIS,10.5623,3.5145,6.67098e-05,39.8107,0.0295053,-4.4786,0.0294152,0.00230397,0.409121,0.329263,0.00971498,8,0.200951,3.5145
2,1,Potentiostatic EIS,10.7047,3.51451,-0.000307086,31.6228,0.0298533,-4.18181,0.0297739,0.00217695,0.383224,0.330729,0.00987344,2,0.0632456,3.51451
2,1,Potentiostatic EIS,10.8669,3.51449,-0.000460444,25.1188,0.030174,-3.76742,0.0301088,0.00198263,0.311613,0.319322,0.00963515,2,0.0796217,3.51449
2,1,Potentiostatic EIS,11.0662,3.51453,-0.000374802,19.9526,0.0303664,-3.4628,0.0303109,0.00183414,0.294121,0.320549,0.00973396,2,0.100238,3.51453
2,1,Potentiostatic EIS,11.3137,3.51453,-9.34297e-05,15.8489,0.0306129,-3.12684,0.0305673,0.00166983,0.498714,0.320011,0.00979642,2,0.126192,3.51453
2,1,Potentiostatic EIS,11.6207,3.51453,-0.000128158,12.5892,0.0308452,-2.80892,0.0308081,0.00151158,1.64003,0.319249,0.0098473,2,0.158866,3.51453
2,1,Potentiostatic EIS,12.0026,3.5145,-0.000819496,9.99998,0.031021,-2.52252,0.0309909,0.0013653,0.29505,0.318341,0.00987523,2,0.2,3.5145
2,1,Potentiostatic EIS,12.4791,3.51451,-0.000865636,7.94328,0.0311877,-2.29152,0.0311627,0.001247,0.270234,0.317705,0.00990847,2,0.251785,3.51451
2,1,Potentiostatic EIS,13.0748,3.51452,-0.000821972,6.30957,0.0313192,-2.10121,0.0312981,0.00114831,0.24699,0.316329,0.00990718,2,0.316979,3.51452
2,1,Potentiostatic EIS,13.8199,3.51452,-0.000601904,5.01186,0.0314435,-1.94526,0.0314254,0.00106734,0.255715,0.315472,0.0099195,2,0.399053,3.51452
2,1,Potentiostatic EIS,14.7522,3.51451,-0.000719724,3.98106,0.0315531,-1.8121,0.0315373,0.000997768,0.226676,0.314638,0.00992782,2,0.502378,3.51451
2,1,Potentiostatic EIS,15.9183,3.51451,-0.00112968,3.16227,0.0316507,-1.73036,0.0316362,0.000955718,0.238218,0.313763,0.00993081,2,0.632458,3.51451
2,1,Potentiostatic EIS,17.3808,3.51451,-0.000986877,2.51188,0.031742,-1.67996,0.0317284,0.000930566,0.222471,0.313112,0.00993884,2,0.796216,3.51451
2,1,Potentiostatic EIS,19.2197,3.51451,-0.00108832,1.99526,0.0318443,-1.64565,0.0318312,0.000914505,0.225137,0.311981,0.00993479,2,1.00238,3.51451
2,1,Potentiostatic EIS,21.5291,3.51452,-0.00119535,1.58489,0.03194,-1.67592,0.0319263,0.000934121,0.251118,0.311035,0.00993446,2,1.26192,3.51452
2,1,Potentiostatic EIS,24.4334,3.51451,-0.00128353,1.25892,0.0320324,-1.71121,0.0320181,0.000956548,0.232525,0.310301,0.00993971,2,1.58866,3.51451
2,1,Potentiostatic EIS,28.0857,3.51451,-0.000886198,0.999998,0.0321338,-1.75794,0.0321187,0.00098577,0.222872,0.309343,0.00994037,2,2,3.51451
2,1,Potentiostatic EIS,32.6815,3.51451,-0.00130122,0.794327,0.0322294,-1.86889,0.0322122,0.00105108,0.214913,0.308436,0.0099407,2,2.51785,3.51451
2,1,Potentiostatic EIS,38.4607,3.51451,-0.00110242,0.630956,0.0323391,-2.01138,0.0323192,0.00113504,0.243774,0.3074,0.00994105,2,3.16979,3.51451
2,1,Potentiostatic EIS,45.7354,3.51451,-0.000496374,0.501186,0.0324555,-2.18404,0.0324319,0.00123686,0.258127,0.30606,0.00993332,2,3.99054,3.51451
2,1,Potentiostatic EIS,54.8899,3.51451,-0.00119328,0.398106,0.0325884,-2.3954,0.0325599,0.00136205,0.23376,0.304876,0.00993542,2,5.02379,3.51451
2,1,Potentiostatic EIS,66.4064,3.51451,-0.000664405,0.316227,0.0327329,-2.65017,0.0326979,0.00151349,0.221413,0.303555,0.00993624,2,6.32457,3.51451
2,1,Potentiostatic EIS,80.9018,3.51451,-0.000250714,0.251188,0.0328916,-2.93935,0.0328483,0.00168664,0.222314,0.30213,0.0099375,2,7.96216,3.51451
2,1,Potentiostatic EIS,99.1455,3.51452,-0.00102403,0.199526,0.0330694,-3.24127,0.0330165,0.00186977,0.232218,0.300477,0.00993659,2,10.0238,3.51452
2,1,Potentiostatic EIS,122.116,3.51451,-0.00011882,0.158489,0.0332792,-3.65112,0.0332116,0.00211925,0.233052,0.298865,0.00994599,2,12.6192,3.51451
2,1,Potentiostatic EIS,151.029,3.5145,-0.000322971,0.125892,0.0335066,-4.1019,0.0334208,0.00239675,0.205402,0.296921,0.00994881,2,15.8866,3.5145
2,1,Potentiostatic EIS,187.42,3.5145,-0.000786409,0.0999997,0.03374,-4.5979,0.0336314,0.00270468,0.221924,0.294562,0.00993849,2,20.0001,3.5145