File: Data/P190_03/EIS_08_P190_03_1/2_EIS_08_P190_03_1 20231004 141333.csv
Step number,Repeats,Step name,Elapsed Time  (s),DC Working Electrode (V),DC Current (A),Frequency (Hz),|Z| (Ohms),Phase (deg),Z' (Ohms),-Z" (Ohms),THD (%),Amplitude (A),Amplitude (V),No of Cycles,Duration of Each Frequency (s),IR Compensated DC Working Electrode (V)
2,1,Potentiostatic EIS,60.3018,3.53679,-0.0158569,1000000,3.43119,88.7156,0.0769085,-3.43033,0.78825,0.00290482,0.00996698,1430,0.00143,3.53679
2,1,Potentiostatic EIS,60.5297,3.53677,-0.0164939,891251,3.06373,88.4147,0.084758,-3.06256,0.695991,0.00321476,0.00984924,1310,0.00146984,3.53677
2,1,Potentiostatic EIS,60.7629,3.53676,-0.0163691,794328,2.74968,88.3186,0.0806802,-2.7485,0.894416,0.00360081,0.00990105,1445,0.00181915,3.53676
2,1,Potentiostatic EIS,60.9952,3.53674,-0.0167383,707946,2.45682,88.3489,0.0707873,-2.4558,0.706824,0.00404128,0.00992874,1340,0.0018928,3.53674
2,1,Potentiostatic EIS,61.2335,3.53672,-0.0174979,630957.25,2.19406,87.9122,0.0799308,-2.1926,0.774876,0.0045202,0.00991766,1355,0.00214753,3.53672
2,1,Potentiostatic EIS,61.477,3.53671,-0.0175725,562341.25,1.95706,87.8305,0.0740848,-1.95566,0.811484,0.00500613,0.00979723,1360,0.00241846,3.53671
2,1,Potentiostatic EIS,61.7249,3.53668,-0.0178029,501187,1.75135,87.8705,0.0650772,-1.75014,0.771265,0.00550693,0.00964426,1385,0.00276344,3.53668
2,1,Potentiostatic EIS,61.9945,3.53668,-0.0183343,446684,1.56067,87.4325,0.069913,-1.55911,0.802496,0.00637605,0.00995095,1360,0.00304466,3.53668
2,1,Potentiostatic EIS,62.2717,3.53667,-0.0186195,398107,1.39788,87.1889,0.0685553,-1.3962,0.768485,0.00712854,0.00996482,1400,0.00351664,3.53667
2,1,Potentiostatic EIS,62.5582,3.53666,-0.0188175,354813,1.24528,87.0083,0.0649924,-1.24358,0.775142,0.00797156,0.00992679,1365,0.00384709,3.53666
2,1,Potentiostatic EIS,62.8698,3.53663,-0.0189851,316228,1.1117,86.8461,0.0611644,-1.11002,0.929641,0.00894362,0.00994265,1370,0.00433232,3.53663
2,1,Potentiostatic EIS,63.1854,3.53659,-0.0196594,281838.25,0.997534,86.3707,0.0631455,-0.995533,0.983344,0.00996781,0.00994323,1370,0.00486094,3.53659
2,1,Potentiostatic EIS,63.5214,3.53656,-0.020783,251189,0.894035,86.1354,0.0602568,-0.892002,0.960729,0.011166,0.00998283,1340,0.00533464,3.53656
2,1,Potentiostatic EIS,64.0021,3.53655,-0.020588,223872,0.798113,86.1315,0.0538465,-0.796295,0.938005,0.0124977,0.00997457,1360,0.0060749,3.53655
2,1,Potentiostatic EIS,64.3757,3.53654,-0.0214138,199526,0.7102,85.9517,0.0501388,-0.708428,1.14408,0.0136959,0.00972652,1355,0.00679109,3.53654
2,1,Potentiostatic EIS,64.8123,3.53651,-0.0219594,177828,0.638209,85.5714,0.0492804,-0.636304,1.16054,0.0156155,0.00996601,1355,0.00761973,3.53651
2,1,Potentiostatic EIS,65.2731,3.53646,-0.0229028,158489,0.571647,85.1161,0.0486679,-0.569571,1.09247,0.0174342,0.00996625,1360,0.00858103,3.53646
2,1,Potentiostatic EIS,65.7706,3.53643,-0.0236165,141254,0.511509,85.1284,0.0434385,-0.509661,1.2763,0.0194939,0.0099713,1355,0.00959267,3.53643
2,1,Potentiostatic EIS,66.3064,3.53641,-0.02413,125892,0.45877,84.532,0.0437157,-0.456682,1.25519,0.0217207,0.00996481,1370,0.0108823,3.53641
2,1,Potentiostatic EIS,67.1239,3.53635,-0.0252784,112202,0.410399,84.1362,0.0419279,-0.408252,1.28923,0.0243493,0.00999292,1360,0.012121,3.53635
2,1,Potentiostatic EIS,67.6889,3.53635,-0.025274,99999.9,0.365969,83.817,0.0394164,-0.36384,1.39577,0.027208,0.0099573,1370,0.0137,3.53635
2,1,Potentiostatic EIS,68.305,3.53629,-0.0264473,89125.1,0.328664,83.4056,0.0377438,-0.32649,1.45579,0.0304274,0.0100004,1365,0.0153156,3.53629
2,1,Potentiostatic EIS,68.9754,3.53627,-0.0268273,79432.8,0.29432,82.7269,0.0372604,-0.291952,1.95781,0.0339787,0.0100006,1365,0.0171843,3.53627
2,1,Potentiostatic EIS,69.7076,3.53623,-0.0274049,70794.5,0.263402,82.2351,0.0355877,-0.260987,1.5278,0.037879,0.00997741,1370,0.0193518,3.53623
2,1,Potentiostatic EIS,69.9554,3.53619,-0.0283491,63095.7,0.235507,81.732,0.0338667,-0.233059,1.56408,0.0423898,0.00998312,1290,0.0204451,3.53619
2,1,Potentiostatic EIS,70.2045,3.53613,-0.0296525,56234.1,0.211905,81.089,0.032824,-0.209348,1.55785,0.047168,0.00999519,1150,0.0204502,3.53613
2,1,Potentiostatic EIS,70.4528,3.53612,-0.030113,50118.7,0.191174,80.6228,0.0311486,-0.188619,1.66315,0.052408,0.0100194,1025,0.0204515,3.53612
2,1,Potentiostatic EIS,70.7095,3.53615,-0.0299648,44668.3,0.169544,79.1748,0.0318428,-0.166527,1.72893,0.0583872,0.00989928,910,0.0203724,3.53615
2,1,Potentiostatic EIS,71.0533,3.53611,-0.0302967,39810.7,0.152082,78.6084,0.0300382,-0.149086,1.78868,0.0646654,0.00983459,815,0.0204719,3.53611
2,1,Potentiostatic EIS,71.3903,3.53647,-0.0192389,35481.3,0.13644,77.7273,0.0290023,-0.133322,3.92434,0.0719888,0.0098219,725,0.0204333,3.53647
2,1,Potentiostatic EIS,71.6096,3.53656,-0.0166141,31622.8,0.12322,76.387,0.0290012,-0.119758,4.84839,0.0812372,0.01001,645,0.0203967,3.53656
2,1,Potentiostatic EIS,71.8122,3.53657,-0.0163531,28183.8,0.110041,75.3733,0.0277876,-0.106475,5.14791,0.0877398,0.00965553,575,0.0204018,3.53657
2,1,Potentiostatic EIS,72.032,3.53693,-0.00593617,25118.8,0.0998598,73.7849,0.0278853,-0.0958874,5.51881,0.10073,0.0100589,510,0.0203035,3.53693
2,1,Potentiostatic EIS,72.2526,3.53693,-0.00637951,22387.2,0.0891651,72.3548,0.0270279,-0.08497,5.8561,0.111753,0.00996438,455,0.0203241,3.53693
2,1,Potentiostatic EIS,72.4742,3.53695,-0.00588772,19952.6,0.0810106,70.546,0.0269806,-0.0763856,6.12718,0.12414,0.0100567,405,0.0202981,3.53695
2,1,Potentiostatic EIS,72.6782,3.53696,-0.00560504,17782.8,0.073181,68.7955,0.0264694,-0.0682263,6.56244,0.133136,0.00974335,360,0.0202443,3.53696
2,1,Potentiostatic EIS,72.8797,3.53701,-0.00494125,15848.9,0.0660235,66.8156,0.025993,-0.0606916,6.63431,0.147663,0.00974924,320,0.0201906,3.53701
2,1,Potentiostatic EIS,73.0837,3.53698,-0.00499271,14125.4,0.0604296,64.4361,0.0260764,-0.0545139,6.77634,0.162528,0.00982155,285,0.0201765,3.53698
2,1,Potentiostatic EIS,73.2896,3.53698,-0.00547344,12589.2,0.05493,62.2329,0.0255907,-0.0486048,6.95329,0.179882,0.00988099,255,0.0202554,3.53698
2,1,Potentiostatic EIS,73.4911,3.537,-0.00465281,11220.2,0.0503697,59.3703,0.0256628,-0.043342,6.8816,0.195616,0.00985303,225,0.0200532,3.537
2,1,Potentiostatic EIS,73.7512,3.53703,-0.00439875,9999.98,0.0463602,57.1023,0.0251801,-0.0389259,3.36525,0.216247,0.0100253,307,0.0307001,3.53703
2,1,Potentiostatic EIS,73.9626,3.53703,-0.00474871,8912.5,0.0428952,54.5005,0.0249091,-0.0349218,3.74502,0.239466,0.0102719,273,0.0306311,3.53703
2,1,Potentiostatic EIS,74.175,3.53701,-0.00522448,7943.27,0.039788,51.9627,0.0245164,-0.0313374,4.10953,0.265571,0.0105665,244,0.0307178,3.53701
2,1,Potentiostatic EIS,74.3861,3.53703,-0.00470142,7079.45,0.0366537,49.408,0.0238494,-0.0278335,4.44996,0.28669,0.0105083,217,0.0306521,3.53703
2,1,Potentiostatic EIS,74.5982,3.53703,-0.00446207,6309.57,0.0337556,45.5686,0.0236308,-0.0241045,4.7093,0.310642,0.0104859,193,0.0305885,3.53703
2,1,Potentiostatic EIS,74.8123,3.53706,-0.00390097,5623.41,0.0318209,41.4745,0.0238419,-0.0210746,4.80944,0.325683,0.0103635,172,0.0305864,3.53706
2,1,Potentiostatic EIS,75.0231,3.53708,-0.00365384,5011.87,0.0304649,37.7476,0.0240891,-0.0186501,4.76759,0.339115,0.0103311,153,0.0305276,3.53708
2,1,Potentiostatic EIS,75.2331,3.53708,-0.00367084,4466.83,0.0293055,34.1904,0.0242408,-0.0164681,4.69062,0.34958,0.0102446,137,0.0306705,3.53708
2,1,Potentiostatic EIS,75.4451,3.53708,-0.00342527,3981.07,0.0283242,30.9545,0.0242901,-0.0145687,4.54607,0.359125,0.0101719,122,0.0306451,3.53708
2,1,Potentiostatic EIS,75.613,3.53712,-0.00272838,3548.13,0.0274976,27.7326,0.024339,-0.0127959,4.50858,0.312943,0.00860519,108,0.0304386,3.53712
2,1,Potentiostatic EIS,75.7811,3.53711,-0.00276619,3162.27,0.0268832,24.783,0.0244073,-0.011269,4.25989,0.352587,0.00947866,97,0.0306742,3.53711
2,1,Potentiostatic EIS,75.9489,3.53711,-0.00277406,2818.38,0.0263664,21.922,0.02446,-0.00984373,3.95276,0.396408,0.0104519,86,0.030514,3.53711
2,1,Potentiostatic EIS,76.1166,3.53708,-0.00364011,2511.88,0.025977,19.317,0.0245145,-0.00859302,3.75059,0.401722,0.0104355,77,0.0306543,3.53708
2,1,Potentiostatic EIS,76.2837,3.53712,-0.00281904,2238.72,0.0256746,16.8181,0.0245764,-0.00742851,3.52904,0.40248,0.0103335,68,0.0303745,3.53712
2,1,Potentiostatic EIS,76.4511,3.53712,-0.00266927,1995.26,0.0254691,14.577,0.0246493,-0.00641008,3.31984,0.402176,0.0102431,61,0.0305725,3.53712
2,1,Potentiostatic EIS,76.6182,3.53712,-0.00219651,1778.28,0.0253104,12.396,0.0247203,-0.00543329,3.07897,0.401488,0.0101618,54,0.0303664,3.53712
2,1,Potentiostatic EIS,76.7858,3.53714,-0.00195447,1584.89,0.025265,10.496,0.0248423,-0.00460244,2.88851,0.400021,0.0101065,48,0.030286,3.53714
2,1,Potentiostatic EIS,76.9093,3.53714,-0.00236057,1412.53,0.0252285,8.73857,0.0249356,-0.00383287,2.81456,0.365057,0.00920982,43,0.0304417,3.53714
2,1,Potentiostatic EIS,77.0321,3.53712,-0.0022358,1258.92,0.0252431,7.16186,0.0250461,-0.00314713,2.69062,0.384156,0.00969728,38,0.0301845,3.53712
2,1,Potentiostatic EIS,77.1551,3.53714,-0.00204945,1122.02,0.0253013,5.66224,0.0251779,-0.00249633,2.51232,0.408429,0.0103338,34,0.0303026,3.53714
2,1,Potentiostatic EIS,77.2794,3.53711,-0.00278409,999.999,0.0253995,4.37946,0.0253253,-0.00193954,2.34718,0.404142,0.010265,30,0.03,3.53711
2,1,Potentiostatic EIS,77.4034,3.53713,-0.00205618,891.25,0.0255092,3.15712,0.0254705,-0.0014049,2.29869,0.399682,0.0101956,27,0.0302945,3.53713
2,1,Potentiostatic EIS,77.5289,3.53716,-0.00161713,794.328,0.0256531,2.10406,0.0256358,-0.000941841,2.24488,0.395536,0.0101467,24,0.0302142,3.53716
2,1,Potentiostatic EIS,77.6517,3.53716,-0.00117628,707.945,0.0258106,1.15014,0.0258054,-0.000518082,2.11712,0.391246,0.0100983,21,0.0296633,3.53716
2,1,Potentiostatic EIS,77.7742,3.53715,-0.00151507,630.956,0.0259834,0.232485,0.0259832,-0.000105431,2.12514,0.38781,0.0100766,19,0.030113,3.53715
2,1,Potentiostatic EIS,77.8966,3.53714,-0.00197313,562.34,0.0261874,-0.503726,0.0261864,0.000230228,2.02386,0.384547,0.0100703,17,0.0302308,3.53714
2,1,Potentiostatic EIS,78.0198,3.53715,-0.00124608,501.185,0.0263914,-1.2189,0.0263854,0.000561402,1.97521,0.380663,0.0100462,15,0.029929,3.53715
2,1,Potentiostatic EIS,78.1422,3.53714,-0.00200494,446.683,0.026622,-1.83749,0.0266083,0.00085363,1.93104,0.376319,0.0100184,13,0.0291034,3.53714
2,1,Potentiostatic EIS,78.2207,3.53715,-0.00167388,398.107,0.0268499,-2.33768,0.0268275,0.00109517,1.91984,0.324623,0.00871609,12,0.0301427,3.53715
2,1,Potentiostatic EIS,78.2991,3.53714,-0.00176215,354.813,0.0270733,-2.85121,0.0270398,0.00134669,1.84251,0.331644,0.0089787,10,0.0281839,3.53714
2,1,Potentiostatic EIS,78.3781,3.53714,-0.00171864,316.227,0.0273366,-3.20473,0.0272939,0.00152823,1.76475,0.336248,0.0091919,9,0.0284606,3.53714
2,1,Potentiostatic EIS,78.4565,3.53714,-0.00160891,281.838,0.0275837,-3.56542,0.0275303,0.00171538,1.68959,0.339453,0.00936336,8,0.0283851,3.53714
2,1,Potentiostatic EIS,78.5385,3.53715,-0.00160876,251.188,0.0278245,-3.87439,0.027761,0.00188009,1.60401,0.341214,0.00949413,8,0.0318487,3.53715
2,1,Potentiostatic EIS,78.623,3.53716,-0.00129536,223.872,0.0280801,-4.08711,0.0280087,0.00200136,1.49021,0.341874,0.00959987,8,0.0357347,3.53716
2,1,Potentiostatic EIS,78.7116,3.53716,-0.00135851,199.526,0.0283421,-4.26017,0.0282638,0.00210541,1.3791,0.341596,0.00968157,8,0.0400951,3.53716
2,1,Potentiostatic EIS,78.8045,3.53716,-0.00138048,177.828,0.0285786,-4.41677,0.0284938,0.00220087,1.30567,0.340726,0.0097375,8,0.0449874,3.53716
2,1,Potentiostatic EIS,78.9046,3.53716,-0.00146161,158.489,0.0288404,-4.51877,0.0287507,0.00227221,1.20535,0.339211,0.00978299,8,0.0504767,3.53716
2,1,Potentiostatic EIS,79.0099,3.53716,-0.00143656,141.253,0.0291024,-4.60699,0.0290083,0.00233752,1.10817,0.337481,0.0098215,8,0.0566359,3.53716
2,1,Potentiostatic EIS,79.1224,3.53715,-0.00154793,125.892,0.0293401,-4.66751,0.0292428,0.0023875,1.03584,0.335554,0.00984518,8,0.0635464,3.53715
2,1,Potentiostatic EIS,79.2428,3.53715,-0.00163157,112.201,0.0295797,-4.66697,0.0294816,0.00240672,0.951595,0.333389,0.00986155,8,0.0713003,3.53715
2,1,Potentiostatic EIS,79.3727,3.53715,-0.0015889,99.9997,0.0298223,-4.68063,0.0297228,0.00243355,0.854495,0.331089,0.00987384,8,0.0800003,3.53715
2,1,Potentiostatic EIS,79.5122,3.53715,-0.00153928,89.1248,0.030058,-4.61241,0.0299606,0.00241711,0.777187,0.328859,0.00988483,8,0.0897617,3.53715
2,1,Potentiostatic EIS,79.6628,3.53716,-0.0014918,79.4325,0.0302914,-4.5776,0.0301948,0.00241753,0.7019,0.326539,0.00989133,8,0.100714,3.53716
2,1,Potentiostatic EIS,79.8261,3.53716,-0.00127234,70.7943,0.0305118,-4.49942,0.0304178,0.00239362,0.634874,0.324346,0.0098964,8,0.113003,3.53716
2,1,Potentiostatic EIS,80.0046,3.53716,-0.00107858,63.0956,0.030726,-4.40876,0.0306351,0.00236196,0.564537,0.322111,0.00989719,8,0.126792,3.53716
2,1,Potentiostatic EIS,80.2025,3.53716,-0.00105699,56.2341,0.0309398,-4.33331,0.0308514,0.00233777,0.501018,0.313968,0.00971412,8,0.142263,3.53716
2,1,Potentiostatic EIS,80.4163,3.53716,-0.00115608,50.1186,0.0311227,-4.20592,0.0310389,0.00228258,0.449335,0.312631,0.00972993,8,0.159621,3.53716
2,1,Potentiostatic EIS,80.651,3.53716,-0.00128068,44.6682,0.0313197,-4.05676,0.0312412,0.0022157,0.407716,0.311356,0.00975157,8,0.179098,3.53716
2,1,Potentiostatic EIS,80.9114,3.53716,-0.0015081,39.8106,0.0315115,-3.94622,0.0314368,0.00216863,0.367264,0.309945,0.00976685,8,0.200952,3.53716
2,1,Potentiostatic EIS,81.1951,3.53717,-0.00108566,35.4812,0.0316829,-3.78077,0.0316139,0.00208913,0.326586,0.308859,0.00978554,8,0.225471,3.53717
2,1,Potentiostatic EIS,81.3375,3.53717,-0.0018916,31.6227,0.0318539,-3.64743,0.0317894,0.00202644,0.316859,0.310746,0.00989847,2,0.0632458,3.53717
2,1,Potentiostatic EIS,81.4832,3.53715,-0.00194279,28.1838,0.0319935,-3.4809,0.0319345,0.00194251,0.325725,0.309887,0.00991438,2,0.0709628,3.53715
2,1,Potentiostatic EIS,81.646,3.53716,-0.00159486,25.1188,0.0321368,-3.31588,0.032083,0.00185882,0.2958,0.300283,0.00965042,2,0.0796217,3.53716
2,1,Potentiostatic EIS,81.8264,3.53716,-0.00152833,22.3871,0.0322801,-3.17914,0.0322304,0.00179019,0.251503,0.299946,0.00968244,2,0.0893371,3.53716
2,1,Potentiostatic EIS,82.0258,3.53716,-0.00174662,19.9525,0.0324137,-3.02606,0.0323685,0.00171112,0.254997,0.300607,0.00974381,2,0.100238,3.53716
2,1,Potentiostatic EIS,82.2482,3.53716,-0.00170394,17.7828,0.0325244,-2.88671,0.0324832,0.00163797,0.261054,0.300596,0.00977669,2,0.112468,3.53716
2,1,Potentiostatic EIS,82.4954,3.53716,-0.00172765,15.8489,0.0326318,-2.74026,0.0325945,0.00156007,0.253661,0.300957,0.00982071,2,0.126192,3.53716
2,1,Potentiostatic EIS,82.7706,3.53717,-0.00133899,14.1253,0.0327301,-2.57556,0.032697,0.00147079,0.209158,0.300864,0.00984734,2,0.14159,3.53717
2,1,Potentiostatic EIS,83.0774,3.53717,-0.00146742,12.5892,0.032817,-2.44815,0.032787,0.00140179,0.218901,0.300666,0.00986697,2,0.158866,3.53717
2,1,Potentiostatic EIS,83.4197,3.53716,-0.001875,11.2201,0.03291,-2.30724,0.0328833,0.00132489,0.226618,0.30008,0.00987559,2,0.178251,3.53716
2,1,Potentiostatic EIS,83.801,3.53718,-0.00161989,9.99996,0.0329898,-2.20623,0.0329653,0.00126999,0.229058,0.300113,0.00990067,2,0.200001,3.53718
2,1,Potentiostatic EIS,84.227,3.53717,-0.00182831,8.91248,0.0330527,-2.08881,0.0330307,0.00120472,0.215636,0.299363,0.00989473,2,0.224404,3.53717
2,1,Potentiostatic EIS,84.7024,3.53717,-0.00184561,7.94325,0.0331272,-1.99794,0.0331071,0.00115493,0.204591,0.299302,0.00991504,2,0.251786,3.53717
2,1,Potentiostatic EIS,85.2341,3.53717,-0.00176688,7.07944,0.0331872,-1.91571,0.0331686,0.00110942,0.226256,0.298886,0.0099192,2,0.282508,3.53717
2,1,Potentiostatic EIS,85.8277,3.53718,-0.00186172,6.30955,0.0332486,-1.82722,0.0332317,0.00106015,0.211739,0.2985,0.0099247,2,0.31698,3.53718
2,1,Potentiostatic EIS,86.4918,3.53717,-0.00206125,5.62339,0.0333099,-1.73843,0.0332946,0.00101052,0.205716,0.298043,0.00992777,2,0.355657,3.53717
2,1,Potentiostatic EIS,87.2353,3.53718,-0.00205502,5.01185,0.0333512,-1.69814,0.0333365,0.000988324,0.189059,0.297986,0.00993818,2,0.399054,3.53718
2,1,Potentiostatic EIS,88.0668,3.53718,-0.0020108,4.46682,0.0333867,-1.62252,0.0333733,0.000945326,0.211043,0.297509,0.00993281,2,0.447745,3.53718
2,1,Potentiostatic EIS,88.995,3.53718,-0.00209742,3.98106,0.0334399,-1.5818,0.0334271,0.000923078,0.19574,0.297221,0.00993904,2,0.502378,3.53718
2,1,Potentiostatic EIS,90.0348,3.53718,-0.00216334,3.54812,0.0334919,-1.54211,0.0334798,0.000901322,0.213461,0.296654,0.0099355,2,0.563679,3.53718
2,1,Potentiostatic EIS,91.199,3.53718,-0.00209204,3.16227,0.0335406,-1.511,0.033529,0.000884431,0.198132,0.296401,0.00994145,2,0.632458,3.53718
2,1,Potentiostatic EIS,92.5043,3.53717,-0.00230047,2.81837,0.0335776,-1.4775,0.0335665,0.000865777,0.205826,0.296044,0.00994045,2,0.70963,3.53717
2,1,Potentiostatic EIS,93.9674,3.53718,-0.00245287,2.51188,0.0336219,-1.45842,0.033611,0.000855728,0.219795,0.295785,0.00994485,2,0.796217,3.53718
2,1,Potentiostatic EIS,95.6074,3.53717,-0.00248159,2.23872,0.0336493,-1.46224,0.0336384,0.000858666,0.19896,0.295493,0.00994314,2,0.893369,3.53717
2,1,Potentiostatic EIS,97.4456,3.53716,-0.00250526,1.99526,0.03371,-1.45486,0.0336991,0.000855874,0.199263,0.29513,0.0099488,2,1.00238,3.53716
2,1,Potentiostatic EIS,99.5059,3.53716,-0.00259927,1.77827,0.0337459,-1.43255,0.0337353,0.000843652,0.176194,0.294724,0.00994574,2,1.12469,3.53716
2,1,Potentiostatic EIS,101.816,3.53716,-0.00240422,1.58489,0.0337815,-1.46741,0.0337704,0.000865089,0.224133,0.294486,0.00994818,2,1.26192,3.53716
2,1,Potentiostatic EIS,104.404,3.53716,-0.00242627,1.41253,0.0338266,-1.4764,0.0338153,0.000871548,0.220786,0.294111,0.00994877,2,1.4159,3.53716
2,1,Potentiostatic EIS,107.309,3.53716,-0.00256529,1.25892,0.0338656,-1.49174,0.0338542,0.000881616,0.20752,0.293483,0.00993898,2,1.58866,3.53716
2,1,Potentiostatic EIS,110.565,3.53717,-0.0022124,1.12202,0.0339119,-1.50498,0.0339002,0.000890654,0.179328,0.293483,0.00995257,2,1.78251,3.53717
2,1,Potentiostatic EIS,114.217,3.53717,-0.00217264,0.999995,0.0339554,-1.54905,0.033943,0.00091791,0.190101,0.293009,0.00994925,2,2.00001,3.53717
2,1,Potentiostatic EIS,118.312,3.53716,-0.00242308,0.891248,0.0340028,-1.6021,0.0339895,0.00095066,0.177644,0.292563,0.00994797,2,2.24404,3.53716
2,1,Potentiostatic EIS,122.907,3.53717,-0.00200099,0.794324,0.0340468,-1.6661,0.0340324,0.000989903,0.190957,0.292269,0.00995084,2,2.51786,3.53717
2,1,Potentiostatic EIS,128.062,3.53717,-0.00212404,0.707944,0.0341078,-1.73226,0.0340923,0.00103105,0.208037,0.291763,0.0099514,2,2.82508,3.53717
2,1,Potentiostatic EIS,133.84,3.53717,-0.00209548,0.630955,0.0341443,-1.7904,0.0341276,0.00106678,0.213313,0.29139,0.00994929,2,3.1698,3.53717
2,1,Potentiostatic EIS,140.326,3.53717,-0.0018684,0.562339,0.0341885,-1.85095,0.0341707,0.00110428,0.203447,0.29081,0.00994236,2,3.55657,3.53717
2,1,Potentiostatic EIS,147.599,3.53717,-0.00198132,0.501186,0.0342479,-1.94028,0.0342283,0.00115956,0.196444,0.290613,0.0099529,2,3.99054,3.53717
2,1,Potentiostatic EIS,155.759,3.53717,-0.00189088,0.446681,0.0342946,-2.0238,0.0342732,0.0012111,0.179428,0.290175,0.00995142,2,4.47747,3.53717
2,1,Potentiostatic EIS,164.914,3.53716,-0.00170605,0.398106,0.0343576,-2.15089,0.0343334,0.00128948,0.200907,0.28936,0.0099417,2,5.02379,3.53716
2,1,Potentiostatic EIS,175.184,3.53717,-0.00178388,0.354812,0.0344295,-2.26369,0.0344026,0.00135992,0.178736,0.28905,0.00995185,2,5.63679,3.53717
2,1,Potentiostatic EIS,186.699,3.53716,-0.00155256,0.316226,0.0344914,-2.34536,0.0344625,0.00141149,0.18281,0.288516,0.00995131,2,6.32458,3.53716
2,1,Potentiostatic EIS,199.619,3.53716,-0.00134023,0.281837,0.0345762,-2.48224,0.0345438,0.00149749,0.185974,0.287629,0.00994512,2,7.09631,3.53716
2,1,Potentiostatic EIS,214.114,3.53716,-0.00170128,0.251188,0.0346487,-2.60997,0.0346128,0.00157779,0.191226,0.287089,0.00994727,2,7.96218,3.53716
2,1,Potentiostatic EIS,230.377,3.53716,-0.0013223,0.223871,0.0347413,-2.7687,0.0347008,0.00167815,0.186456,0.286396,0.00994976,2,8.9337,3.53716
2,1,Potentiostatic EIS,248.621,3.53716,-0.00127712,0.199525,0.0348106,-2.92884,0.0347652,0.00177867,0.201241,0.28591,0.0099527,2,10.0238,3.53716
2,1,Potentiostatic EIS,269.087,3.53716,-0.00157138,0.177827,0.0349026,-3.08223,0.0348521,0.00187668,0.200372,0.284979,0.00994649,2,11.2469,3.53716
2,1,Potentiostatic EIS,292.058,3.53716,-0.000932689,0.158489,0.0350059,-3.29988,0.0349479,0.00201501,0.188023,0.284159,0.00994724,2,12.6192,3.53716
2,1,Potentiostatic EIS,317.824,3.53716,-0.00102548,0.141253,0.0351134,-3.48341,0.0350486,0.00213348,0.207765,0.283392,0.00995086,2,14.159,3.53716
2,1,Potentiostatic EIS,346.736,3.53715,-0.00123526,0.125892,0.0352027,-3.69202,0.0351297,0.00226682,0.191596,0.282624,0.00994911,2,15.8867,3.53715
2,1,Potentiostatic EIS,379.169,3.53716,-0.000380946,0.112201,0.0353234,-3.89417,0.0352418,0.00239894,0.220464,0.281575,0.00994618,2,17.8251,3.53716
2,1,Potentiostatic EIS,415.56,3.53716,-0.000730713,0.0999997,0.0354369,-4.17085,0.0353431,0.00257735,0.186828,0.280943,0.00995576,2,20.0001,3.53716
2,1,Potentiostatic EIS,456.389,3.53717,-0.000435224,0.0891246,0.0355611,-4.42178,0.0354553,0.00274169,0.182819,0.280049,0.00995886,2,22.4405,3.53717
2,1,Potentiostatic EIS,502.189,3.53716,-9.54375e-05,0.0794325,0.0356878,-4.69033,0.0355683,0.00291821,0.170785,0.278781,0.00994908,2,25.1786,3.53716
2,1,Potentiostatic EIS,553.588,3.53716,-0.000650985,0.0707942,0.0358235,-4.99809,0.0356873,0.00312103,0.19023,0.27771,0.00994852,2,28.2509,3.53716
2,1,Potentiostatic EIS,611.245,3.53716,-0.000271725,0.0630955,0.0359593,-5.33203,0.0358037,0.0033416,0.201118,0.276672,0.0099489,2,31.698,3.53716
2,1,Potentiostatic EIS,675.933,3.53715,0.000337358,0.0562339,0.036188,-5.67288,0.0360107,0.00357713,0.18168,0.275031,0.00995284,2,35.5657,3.53715
2,1,Potentiostatic EIS,748.515,3.53717,-0.000255718,0.0501185,0.0365323,-6.00316,0.036332,0.00382067,0.193372,0.272423,0.00995222,2,39.9054,3.53717
2,1,Potentiostatic EIS,821.267,3.53717,-8.03721e-05,0.05,0.0364787,-6.02216,0.0362774,0.0038271,0.182408,0.272883,0.0099544,2,40,3.53717