File: Data/P190/P190_03/EIS_06_P190_03_4/2_EIS_06_P190_03_4 20230921 115351.csv
Step number,Repeats,Step name,Elapsed Time  (s),DC Working Electrode (V),DC Current (A),Frequency (Hz),|Z| (Ohms),Phase (deg),Z' (Ohms),-Z" (Ohms),THD (%),Amplitude (A),Amplitude (V),No of Cycles,Duration of Each Frequency (s),IR Compensated DC Working Electrode (V)
2,1,Potentiostatic EIS,60.2942,3.53128,-0.015463,1000000,2.31618,87.8386,0.0873527,-2.31453,0.969978,0.00429625,0.00995093,1430,0.00143,3.53128
2,1,Potentiostatic EIS,60.5448,3.53121,-0.0171195,794328,1.86193,87.3803,0.0851038,-1.85999,1.05476,0.00534463,0.00995131,1445,0.00181915,3.53121
2,1,Potentiostatic EIS,60.8029,3.53117,-0.0179056,630957.375,1.4874,86.8824,0.0808935,-1.4852,0.984006,0.00668658,0.00994564,1355,0.00214753,3.53117
2,1,Potentiostatic EIS,61.0752,3.53112,-0.0191157,501187.25,1.18668,86.8052,0.0661341,-1.18484,1.18075,0.00840195,0.00997048,1385,0.00276344,3.53112
2,1,Potentiostatic EIS,61.3548,3.53105,-0.0205496,398107,0.95175,85.8979,0.0680818,-0.949312,1.20558,0.0104583,0.00995377,1400,0.00351664,3.53105
2,1,Potentiostatic EIS,61.6671,3.531,-0.0217394,316228,0.757085,85.5233,0.0590935,-0.754775,1.27848,0.0128391,0.00972071,1370,0.00433232,3.531
2,1,Potentiostatic EIS,62.0306,3.53093,-0.0234498,251189,0.60903,84.6109,0.0571991,-0.606338,1.31744,0.0163828,0.00997764,1340,0.00533464,3.53093
2,1,Potentiostatic EIS,62.4396,3.53083,-0.0254557,199526,0.486008,84.2448,0.048736,-0.483558,1.45622,0.0204247,0.00992661,1355,0.00679109,3.53083
2,1,Potentiostatic EIS,62.9102,3.53077,-0.0270084,158489,0.39098,83.1688,0.0465052,-0.388205,1.59755,0.0254504,0.0099506,1360,0.00858102,3.53077
2,1,Potentiostatic EIS,63.4383,3.53064,-0.0300163,125893,0.314667,82.1434,0.0430129,-0.311713,1.60242,0.0310696,0.00977704,1370,0.0108823,3.53064
2,1,Potentiostatic EIS,64.1091,3.53054,-0.0325904,100000,0.25227,81.0557,0.0392217,-0.249202,1.81253,0.039481,0.00995989,1370,0.0137,3.53054
2,1,Potentiostatic EIS,64.7751,3.53046,-0.0339373,79432.8,0.203416,79.3189,0.0377018,-0.199892,2.79905,0.0477103,0.00970623,1365,0.0171843,3.53046
2,1,Potentiostatic EIS,65.258,3.53098,-0.0199829,63095.7,0.163928,77.8842,0.0344067,-0.160277,4.13326,0.0607075,0.00995168,1290,0.0204451,3.53098
2,1,Potentiostatic EIS,65.4762,3.53097,-0.0201265,50118.75,0.132213,75.6498,0.0327688,-0.128088,4.77422,0.0757096,0.01001,1025,0.0204514,3.53097
2,1,Potentiostatic EIS,65.6962,3.53095,-0.0198315,39810.7,0.107256,72.9022,0.0315337,-0.102516,5.32041,0.0934566,0.0100238,815,0.0204719,3.53095
2,1,Potentiostatic EIS,65.9183,3.53098,-0.0198637,31622.8,0.0879474,69.4357,0.0308922,-0.0823433,5.81149,0.114339,0.0100556,645,0.0203967,3.53098
2,1,Potentiostatic EIS,66.1429,3.53128,-0.0117344,25118.9,0.0723679,65.7787,0.0296898,-0.0659972,6.55971,0.139847,0.0101202,510,0.0203034,3.53128
2,1,Potentiostatic EIS,66.3655,3.53131,-0.0107198,19952.6,0.0601311,60.9421,0.0292053,-0.0525624,6.74548,0.168079,0.0101069,405,0.0202981,3.53131
2,1,Potentiostatic EIS,66.5855,3.53139,-0.00912539,15848.9,0.0505099,55.8227,0.0283742,-0.041787,6.79711,0.198474,0.0100249,320,0.0201906,3.53139
2,1,Potentiostatic EIS,66.8052,3.5314,-0.00840164,12589.2,0.0436361,49.9707,0.0280658,-0.0334128,6.57411,0.229422,0.0100111,255,0.0202554,3.5314
2,1,Potentiostatic EIS,67.1099,3.53148,-0.0078806,9999.98,0.0385572,43.9287,0.027769,-0.0267495,3.04081,0.259148,0.00999201,307,0.0307001,3.53148
2,1,Potentiostatic EIS,67.3224,3.5315,-0.00735148,7943.27,0.0348008,38.3057,0.0273087,-0.0215715,3.57898,0.285184,0.00992462,244,0.0307178,3.5315
2,1,Potentiostatic EIS,67.534,3.53153,-0.0070655,6309.57,0.0311044,31.827,0.0264277,-0.0164031,3.95067,0.340231,0.0105827,193,0.0305885,3.53153
2,1,Potentiostatic EIS,67.7465,3.53156,-0.00590661,5011.87,0.0296404,24.6702,0.026935,-0.0123717,3.94859,0.34869,0.0103353,153,0.0305276,3.53156
2,1,Potentiostatic EIS,67.9576,3.53156,-0.00609409,3981.07,0.0288165,19.2215,0.02721,-0.009487,3.75985,0.351703,0.0101348,122,0.0306451,3.53156
2,1,Potentiostatic EIS,68.128,3.53159,-0.00526849,3162.27,0.0283375,14.7181,0.0274077,-0.00719953,3.53571,0.365097,0.010346,97,0.0306742,3.53159
2,1,Potentiostatic EIS,68.2954,3.5316,-0.00510417,2511.88,0.0280559,10.9206,0.0275478,-0.00531516,3.11305,0.37005,0.0103821,77,0.0306543,3.5316
2,1,Potentiostatic EIS,68.4643,3.53161,-0.00496847,1995.26,0.0279726,7.73293,0.0277182,-0.00376387,2.84886,0.364428,0.010194,61,0.0305725,3.53161
2,1,Potentiostatic EIS,68.5874,3.53163,-0.00436304,1584.89,0.0280413,5.00297,0.0279344,-0.00244541,2.74624,0.334223,0.00937204,48,0.030286,3.53163
2,1,Potentiostatic EIS,68.7103,3.53162,-0.0044833,1258.92,0.0282286,2.80581,0.0281947,-0.00138182,2.56941,0.367677,0.010379,38,0.0301845,3.53162
2,1,Potentiostatic EIS,68.8323,3.53164,-0.00438617,999.999,0.028504,0.990794,0.0284997,-0.000492884,2.42331,0.358421,0.0102164,30,0.03,3.53164
2,1,Potentiostatic EIS,68.9551,3.53164,-0.00402127,794.328,0.0288457,-0.46167,0.0288447,0.000232426,2.34435,0.350609,0.0101136,24,0.0302142,3.53164
2,1,Potentiostatic EIS,69.078,3.53164,-0.00425428,630.956,0.0292289,-1.68697,0.0292162,0.00086047,2.25487,0.343703,0.0100461,19,0.030113,3.53164
2,1,Potentiostatic EIS,69.2007,3.53165,-0.00391822,501.187,0.0296795,-2.64011,0.029648,0.0013671,2.14394,0.337892,0.0100285,15,0.029929,3.53165
2,1,Potentiostatic EIS,69.2803,3.53165,-0.00386142,398.107,0.0301504,-3.40685,0.0300971,0.00179171,2.03311,0.29677,0.00894772,12,0.0301427,3.53165
2,1,Potentiostatic EIS,69.3589,3.53166,-0.00376464,316.228,0.030654,-3.97116,0.0305804,0.00212292,1.83314,0.304921,0.00934705,9,0.0284605,3.53166
2,1,Potentiostatic EIS,69.4401,3.53166,-0.00368509,251.189,0.0311866,-4.45494,0.0310923,0.00242242,1.62098,0.307636,0.0095941,8,0.0318486,3.53166
2,1,Potentiostatic EIS,69.5284,3.53166,-0.00381098,199.526,0.0317281,-4.74598,0.0316193,0.00262513,1.42816,0.307035,0.00974164,8,0.0400951,3.53166
2,1,Potentiostatic EIS,69.6282,3.53167,-0.00345941,158.489,0.0322723,-4.90458,0.0321542,0.00275917,1.19288,0.304559,0.00982883,8,0.0504766,3.53167
2,1,Potentiostatic EIS,69.741,3.53167,-0.00349528,125.892,0.0328101,-4.98205,0.0326862,0.00284935,1.00921,0.300988,0.00987547,8,0.0635464,3.53167
2,1,Potentiostatic EIS,69.8702,3.53167,-0.00340222,100,0.033343,-4.95113,0.0332186,0.0028777,0.833823,0.296752,0.00989459,8,0.08,3.53167
2,1,Potentiostatic EIS,70.0217,3.53166,-0.00351431,79.4327,0.0338591,-4.83845,0.0337385,0.0028559,0.671666,0.292482,0.00990318,8,0.100714,3.53166
2,1,Potentiostatic EIS,70.2007,3.53165,-0.00370271,63.0956,0.0343583,-4.65392,0.034245,0.00278773,0.548005,0.288429,0.00990994,8,0.126792,3.53165
2,1,Potentiostatic EIS,70.4143,3.53165,-0.00345368,50.1186,0.0348336,-4.42828,0.0347296,0.00268954,0.448714,0.279074,0.00972116,8,0.159621,3.53165
2,1,Potentiostatic EIS,70.6727,3.53165,-0.00404944,39.8107,0.0352718,-4.14478,0.0351795,0.00254934,0.363537,0.276705,0.00975987,8,0.200951,3.53165
2,1,Potentiostatic EIS,70.8159,3.53165,-0.00433057,31.6228,0.0356505,-3.85655,0.0355698,0.00239781,0.311782,0.277471,0.00989205,2,0.0632456,3.53165
2,1,Potentiostatic EIS,70.9784,3.53166,-0.00377197,25.1188,0.0360345,-3.52323,0.0359664,0.00221444,0.298208,0.267913,0.0096541,2,0.0796217,3.53166
2,1,Potentiostatic EIS,71.1786,3.53167,-0.0037492,19.9526,0.0363467,-3.20115,0.03629,0.00202965,0.262944,0.268419,0.009756,2,0.100238,3.53167
2,1,Potentiostatic EIS,71.4258,3.53166,-0.0039911,15.8489,0.036621,-2.88057,0.0365747,0.00184036,0.252214,0.268242,0.00982328,2,0.126192,3.53166
2,1,Potentiostatic EIS,71.7324,3.53166,-0.00378048,12.5892,0.0368295,-2.59158,0.0367918,0.00166529,0.245466,0.267976,0.00986944,2,0.158866,3.53166
2,1,Potentiostatic EIS,72.1141,3.53167,-0.00381371,9.99998,0.0370304,-2.3322,0.0369997,0.00150689,0.2411,0.267236,0.00989586,2,0.2,3.53167
2,1,Potentiostatic EIS,72.5896,3.53165,-0.004033,7.94328,0.0372149,-2.08542,0.0371903,0.00135423,0.230614,0.26648,0.00991706,2,0.251785,3.53165
2,1,Potentiostatic EIS,73.1839,3.53167,-0.00391468,6.30957,0.0373478,-1.90414,0.0373272,0.00124097,0.218234,0.265646,0.00992131,2,0.316979,3.53167
2,1,Potentiostatic EIS,73.9264,3.53167,-0.00382742,5.01186,0.0374805,-1.72661,0.0374634,0.00112931,0.23813,0.265202,0.0099399,2,0.399053,3.53167
2,1,Potentiostatic EIS,74.8569,3.53167,-0.00378984,3.98106,0.0375801,-1.59295,0.0375656,0.00104467,0.246408,0.264508,0.00994022,2,0.502378,3.53167
2,1,Potentiostatic EIS,76.021,3.53167,-0.00398207,3.16227,0.0376851,-1.51904,0.0376718,0.000999001,0.232346,0.26397,0.0099477,2,0.632458,3.53167
2,1,Potentiostatic EIS,77.4833,3.53167,-0.0041224,2.51188,0.0377734,-1.44363,0.0377615,0.000951644,0.234605,0.263253,0.00994396,2,0.796216,3.53167
2,1,Potentiostatic EIS,79.3212,3.53168,-0.00405873,1.99526,0.0378628,-1.41624,0.0378512,0.0009358,0.232699,0.262804,0.00995048,2,1.00238,3.53168
2,1,Potentiostatic EIS,81.6311,3.53167,-0.00442354,1.58489,0.0379204,-1.42467,0.0379086,0.000942797,0.219126,0.262432,0.00995151,2,1.26192,3.53167
2,1,Potentiostatic EIS,84.5351,3.53166,-0.004365,1.25892,0.038028,-1.44399,0.0380159,0.000958292,0.240621,0.261646,0.00994989,2,1.58866,3.53166
2,1,Potentiostatic EIS,88.1871,3.53167,-0.00395378,0.999998,0.0381224,-1.46049,0.0381101,0.000971647,0.233319,0.260864,0.00994475,2,2,3.53167
2,1,Potentiostatic EIS,92.7821,3.53167,-0.00418948,0.794327,0.0382134,-1.54338,0.0381995,0.00102923,0.217221,0.260306,0.00994717,2,2.51785,3.53167
2,1,Potentiostatic EIS,98.5615,3.53167,-0.00382719,0.630956,0.0383366,-1.68908,0.03832,0.00113,0.243153,0.259574,0.00995118,2,3.16979,3.53167
2,1,Potentiostatic EIS,105.835,3.53167,-0.00317784,0.501186,0.038445,-1.79818,0.0384261,0.00120637,0.276362,0.258853,0.00995161,2,3.99054,3.53167
2,1,Potentiostatic EIS,114.989,3.53166,-0.00359228,0.398106,0.0385527,-1.95007,0.0385304,0.00131189,0.203292,0.257969,0.00994538,2,5.02379,3.53166
2,1,Potentiostatic EIS,126.505,3.53166,-0.0029515,0.316227,0.0387163,-2.14872,0.0386891,0.00145161,0.232344,0.257108,0.0099543,2,6.32457,3.53166
2,1,Potentiostatic EIS,140.999,3.53167,-0.00255332,0.251188,0.0388631,-2.37696,0.0388297,0.00161181,0.212199,0.256068,0.00995159,2,7.96216,3.53167
2,1,Potentiostatic EIS,159.243,3.53167,-0.00279006,0.199526,0.0390362,-2.65756,0.0389942,0.00180997,0.225595,0.255005,0.00995441,2,10.0238,3.53167
2,1,Potentiostatic EIS,182.214,3.53167,-0.00186893,0.158489,0.0392461,-2.97804,0.0391931,0.00203896,0.2316,0.253652,0.00995488,2,12.6192,3.53167
2,1,Potentiostatic EIS,211.127,3.53166,-0.00185686,0.125892,0.0394652,-3.36084,0.0393973,0.00231361,0.212198,0.252172,0.00995201,2,15.8866,3.53166
2,1,Potentiostatic EIS,247.519,3.53166,-0.00182926,0.0999997,0.0397364,-3.75893,0.0396509,0.00260507,0.24885,0.250567,0.00995667,2,20.0001,3.53166
2,1,Potentiostatic EIS,293.32,3.53165,-0.00108407,0.0794326,0.0400121,-4.23823,0.0399027,0.00295704,0.210258,0.248878,0.00995812,2,25.1786,3.53165
2,1,Potentiostatic EIS,350.977,3.53166,-0.00155852,0.0630957,0.0402903,-4.84879,0.0401461,0.00340559,0.192285,0.247139,0.00995728,2,31.6979,3.53166
2,1,Potentiostatic EIS,423.559,3.53166,-0.00102597,0.0501187,0.0406703,-5.50891,0.0404825,0.00390437,0.202962,0.244976,0.00996329,2,39.9053,3.53166
2,1,Potentiostatic EIS,496.311,3.53165,-0.0009836,0.05,0.0406749,-5.55078,0.0404841,0.00393439,0.193989,0.244982,0.00996461,2,40,3.53165