File: Data/P190/P190_04/EIS_02_P190_04_2/2_EIS_02_P190_04_2 20230921 141316.csv
Step number,Repeats,Step name,Elapsed Time  (s),DC Working Electrode (V),DC Current (A),Frequency (Hz),|Z| (Ohms),Phase (deg),Z' (Ohms),-Z" (Ohms),THD (%),Amplitude (A),Amplitude (V),No of Cycles,Duration of Each Frequency (s),IR Compensated DC Working Electrode (V)
2,1,Potentiostatic EIS,60.2969,3.46271,-0.011541,1000000,2.60249,87.1051,0.131435,-2.59917,1.13766,0.00384062,0.00999507,1430,0.00143,3.46271
2,1,Potentiostatic EIS,60.5274,3.46265,-0.0131823,794328,2.09283,86.8988,0.113222,-2.08977,1.17831,0.00462,0.00966922,1445,0.00181915,3.46265
2,1,Potentiostatic EIS,60.7893,3.46261,-0.0136488,630957.375,1.67503,86.4175,0.104665,-1.67176,1.21621,0.00594364,0.0099557,1355,0.00214753,3.46261
2,1,Potentiostatic EIS,61.0617,3.46256,-0.0146434,501187.25,1.34261,86.271,0.0873189,-1.33977,1.2221,0.00740883,0.00994714,1385,0.00276344,3.46256
2,1,Potentiostatic EIS,61.3357,3.46252,-0.0158284,398107,1.07463,85.4346,0.0855372,-1.07122,1.18698,0.00925853,0.00994949,1400,0.00351664,3.46252
2,1,Potentiostatic EIS,61.7752,3.46244,-0.0169073,316228,0.856919,85.0205,0.0743799,-0.853685,1.31976,0.0115282,0.00987852,1370,0.00433232,3.46244
2,1,Potentiostatic EIS,62.1403,3.46241,-0.0180769,251189,0.689835,84.1006,0.070903,-0.686182,1.36187,0.014455,0.0099716,1340,0.00533464,3.46241
2,1,Potentiostatic EIS,62.5457,3.46233,-0.0197381,199526,0.55276,83.7824,0.0598661,-0.549509,1.46993,0.0179644,0.00993001,1355,0.00679109,3.46233
2,1,Potentiostatic EIS,63.1987,3.46225,-0.0213669,158489,0.446076,82.7142,0.0565708,-0.442475,1.56971,0.0223079,0.00995109,1360,0.00858102,3.46225
2,1,Potentiostatic EIS,63.7273,3.46221,-0.021955,125893,0.360859,81.9175,0.0507365,-0.357275,1.66452,0.027627,0.00996956,1370,0.0108823,3.46221
2,1,Potentiostatic EIS,64.3455,3.46211,-0.0243847,100000,0.2892,80.9604,0.0454382,-0.285608,2.24249,0.0336146,0.00972182,1370,0.0137,3.46211
2,1,Potentiostatic EIS,65.0185,3.46202,-0.0261571,79432.8,0.234288,79.6864,0.0419461,-0.230503,2.11148,0.0424353,0.00994205,1365,0.0171843,3.46202
2,1,Potentiostatic EIS,65.2639,3.46193,-0.0278096,63095.7,0.189077,78.3639,0.0381359,-0.185192,1.99613,0.0514435,0.00972695,1290,0.0204451,3.46193
2,1,Potentiostatic EIS,65.6362,3.46181,-0.0290903,50118.75,0.153319,76.9594,0.034595,-0.149365,1.8965,0.0649461,0.0099591,1025,0.0204514,3.46181
2,1,Potentiostatic EIS,66.0222,3.46245,-0.0135634,39810.7,0.124155,74.5599,0.0330538,-0.119674,4.56689,0.0802049,0.00995785,815,0.0204719,3.46245
2,1,Potentiostatic EIS,66.2404,3.46241,-0.013877,31622.8,0.101706,71.9654,0.0314873,-0.096709,5.04379,0.0988313,0.0100519,645,0.0203967,3.46241
2,1,Potentiostatic EIS,66.4609,3.46273,-0.00527572,25118.9,0.083223,69.0473,0.0297603,-0.0777199,5.98642,0.121117,0.0100797,510,0.0203034,3.46273
2,1,Potentiostatic EIS,66.6817,3.46283,-0.00387975,19952.6,0.0686598,65.3796,0.0286039,-0.0624178,6.45875,0.146804,0.0100796,405,0.0202981,3.46283
2,1,Potentiostatic EIS,66.9035,3.46289,-0.00338337,15848.9,0.0568553,61.1683,0.0274178,-0.0498075,6.92769,0.175698,0.00998958,320,0.0201906,3.46289
2,1,Potentiostatic EIS,67.1067,3.46285,-0.00245129,12589.2,0.0481445,56.4216,0.0266276,-0.0401107,6.93537,0.201402,0.00969582,255,0.0202554,3.46285
2,1,Potentiostatic EIS,67.3676,3.46308,-0.00294984,9999.98,0.0414417,51.2194,0.0259566,-0.0323059,3.21884,0.243544,0.0100929,307,0.0307001,3.46308
2,1,Potentiostatic EIS,67.5788,3.4631,-0.00253422,7943.27,0.0362928,46.0839,0.0251729,-0.0261438,3.86171,0.282205,0.010242,244,0.0307178,3.4631
2,1,Potentiostatic EIS,67.7933,3.46311,-0.00243913,6309.57,0.031407,39.8289,0.0241194,-0.0201161,4.36447,0.335232,0.0105286,193,0.0305885,3.46311
2,1,Potentiostatic EIS,68.0045,3.46315,-0.00140003,5011.87,0.0289327,32.355,0.0244409,-0.0154837,4.41517,0.35792,0.0103556,153,0.0305276,3.46315
2,1,Potentiostatic EIS,68.2164,3.46317,-0.00116787,3981.07,0.0273446,26.1394,0.0245479,-0.0120468,4.21261,0.372413,0.0101835,122,0.0306451,3.46317
2,1,Potentiostatic EIS,68.3841,3.46317,-0.000836536,3162.27,0.026303,20.6836,0.0246077,-0.00929039,3.98767,0.362908,0.00954556,97,0.0306742,3.46317
2,1,Potentiostatic EIS,68.5513,3.46318,-0.000706125,2511.88,0.0256292,15.9046,0.0246481,-0.00702331,3.56506,0.407005,0.0104312,77,0.0306543,3.46318
2,1,Potentiostatic EIS,68.7197,3.46321,-0.000182205,1995.26,0.0252845,11.7347,0.0247561,-0.00514238,3.12522,0.404998,0.0102402,61,0.0305725,3.46321
2,1,Potentiostatic EIS,68.8433,3.46321,-1.03054e-05,1584.89,0.0251806,8.16409,0.0249254,-0.00357586,2.91962,0.338739,0.00852966,48,0.030286,3.46321
2,1,Potentiostatic EIS,68.9668,3.46321,-0.000145979,1258.92,0.0252277,5.1837,0.0251245,-0.0022793,2.63627,0.39334,0.00992305,38,0.0301845,3.46321
2,1,Potentiostatic EIS,69.0908,3.46322,-0.000105328,999.999,0.0254273,2.74345,0.0253982,-0.00121705,2.40108,0.40365,0.0102637,30,0.03,3.46322
2,1,Potentiostatic EIS,69.2145,3.46322,-6.20426e-05,794.328,0.0257109,0.655945,0.0257092,-0.000294342,2.25896,0.394421,0.0101409,24,0.0302142,3.46322
2,1,Potentiostatic EIS,69.3383,3.46323,-9.99581e-05,630.956,0.0260519,-1.02458,0.0260478,0.000465844,2.12857,0.386411,0.0100667,19,0.030113,3.46323
2,1,Potentiostatic EIS,69.4622,3.46324,0.000587976,501.187,0.0264692,-2.40925,0.0264458,0.00111268,2.03811,0.378936,0.0100301,15,0.029929,3.46324
2,1,Potentiostatic EIS,69.5412,3.46324,0.000424881,398.107,0.0269497,-3.49485,0.0268996,0.00164283,1.97856,0.326997,0.00881248,12,0.0301427,3.46324
2,1,Potentiostatic EIS,69.6214,3.46325,0.000641658,316.228,0.0274593,-4.45533,0.0273764,0.00213309,1.80703,0.337587,0.00926991,9,0.0284605,3.46325
2,1,Potentiostatic EIS,69.7019,3.46325,0.000623365,251.189,0.0280365,-5.17758,0.0279221,0.00253009,1.60529,0.341233,0.00956698,8,0.0318486,3.46325
2,1,Potentiostatic EIS,69.7908,3.46324,0.000630033,199.526,0.0286364,-5.67524,0.028496,0.00283184,1.44712,0.340046,0.00973768,8,0.0400951,3.46324
2,1,Potentiostatic EIS,69.8904,3.46325,0.000780831,158.489,0.0292478,-6.03005,0.029086,0.00307248,1.215,0.336138,0.0098313,8,0.0504766,3.46325
2,1,Potentiostatic EIS,70.0027,3.46325,0.00077905,125.892,0.0298781,-6.27133,0.0296993,0.00326379,1.05758,0.330726,0.00988146,8,0.0635464,3.46325
2,1,Potentiostatic EIS,70.1312,3.46324,0.000359812,100,0.0305243,-6.38965,0.0303346,0.00339703,0.843142,0.324525,0.00990589,8,0.08,3.46324
2,1,Potentiostatic EIS,70.2832,3.46324,0.000563228,79.4327,0.031169,-6.3378,0.0309785,0.00344075,0.718352,0.318188,0.0099176,8,0.100714,3.46324
2,1,Potentiostatic EIS,70.4615,3.46324,0.00049036,63.0956,0.0317786,-6.20964,0.0315921,0.00343738,0.603018,0.312135,0.0099192,8,0.126792,3.46324
2,1,Potentiostatic EIS,70.6756,3.46324,0.00105382,50.1186,0.0323675,-6.05006,0.0321872,0.00341144,0.479832,0.30066,0.00973159,8,0.159621,3.46324
2,1,Potentiostatic EIS,70.9346,3.46322,0.000259723,39.8107,0.0329235,-5.75958,0.0327572,0.00330402,0.395882,0.296592,0.00976482,8,0.200951,3.46322
2,1,Potentiostatic EIS,71.0777,3.46323,-0.00074174,31.6228,0.0334383,-5.51661,0.0332834,0.00321456,0.326405,0.295849,0.00989271,2,0.0632456,3.46323
2,1,Potentiostatic EIS,71.2398,3.46323,-5.40221e-05,25.1188,0.0339463,-5.12386,0.0338106,0.00303171,0.311357,0.284361,0.00965286,2,0.0796217,3.46323
2,1,Potentiostatic EIS,71.44,3.46324,5.59543e-05,19.9526,0.0343995,-4.80889,0.0342784,0.00288379,0.286644,0.283659,0.00975775,2,0.100238,3.46324
2,1,Potentiostatic EIS,71.6872,3.46323,0.000119394,15.8489,0.0348063,-4.45325,0.0347012,0.00270255,0.249003,0.282141,0.00982031,2,0.126192,3.46323
2,1,Potentiostatic EIS,71.9939,3.46324,0.000162342,12.5892,0.0351727,-4.12372,0.0350816,0.00252928,0.283065,0.280511,0.00986631,2,0.158866,3.46324
2,1,Potentiostatic EIS,72.3753,3.46324,-0.000651041,9.99998,0.0355218,-3.8355,0.0354422,0.00237613,0.250097,0.278624,0.00989725,2,0.2,3.46324
2,1,Potentiostatic EIS,72.8509,3.46325,-0.000663947,7.94328,0.0357967,-3.54116,0.0357284,0.002211,0.274028,0.276967,0.00991453,2,0.251785,3.46325
2,1,Potentiostatic EIS,73.4455,3.46324,-0.000992229,6.30957,0.0360588,-3.2755,0.0359999,0.0020603,0.247413,0.275323,0.00992782,2,0.316979,3.46324
2,1,Potentiostatic EIS,74.188,3.46323,-0.000634413,5.01186,0.0362955,-3.04946,0.0362441,0.00193085,0.25185,0.273833,0.00993891,2,0.399053,3.46323
2,1,Potentiostatic EIS,75.119,3.46323,-0.000504787,3.98106,0.0365123,-2.86222,0.0364667,0.00182322,0.237791,0.272333,0.0099435,2,0.502378,3.46323
2,1,Potentiostatic EIS,76.2833,3.46323,-0.00080725,3.16227,0.0367307,-2.70977,0.0366897,0.00173651,0.229539,0.270584,0.00993875,2,0.632458,3.46323
2,1,Potentiostatic EIS,77.7456,3.46324,-0.000685277,2.51188,0.0369131,-2.60378,0.036875,0.00167692,0.234733,0.269485,0.00994751,2,0.796216,3.46324
2,1,Potentiostatic EIS,79.5844,3.46324,-0.000644299,1.99526,0.0370878,-2.52392,0.0370518,0.00163322,0.225228,0.268221,0.00994771,2,1.00238,3.46324
2,1,Potentiostatic EIS,81.8938,3.46324,-0.000975706,1.58489,0.0372824,-2.49317,0.0372471,0.0016218,0.197731,0.266932,0.00995186,2,1.26192,3.46324
2,1,Potentiostatic EIS,84.7981,3.46324,-0.000818352,1.25892,0.0374599,-2.51271,0.0374238,0.00164228,0.208593,0.265801,0.00995685,2,1.58866,3.46324
2,1,Potentiostatic EIS,88.4497,3.46324,-0.000650379,0.999998,0.037627,-2.53714,0.0375901,0.00166563,0.223716,0.264442,0.00995018,2,2,3.46324
2,1,Potentiostatic EIS,93.0446,3.46324,-0.00108303,0.794327,0.0378157,-2.63135,0.0377758,0.0017361,0.211526,0.263059,0.00994774,2,2.51785,3.46324
2,1,Potentiostatic EIS,98.8232,3.46325,-0.000633677,0.630956,0.0379935,-2.76519,0.0379493,0.00183292,0.171548,0.262004,0.00995445,2,3.16979,3.46325
2,1,Potentiostatic EIS,106.097,3.46324,-0.000210763,0.501186,0.0381941,-2.93268,0.0381441,0.00195411,0.193766,0.260475,0.00994861,2,3.99054,3.46324
2,1,Potentiostatic EIS,115.251,3.46325,-0.000930875,0.398106,0.0384373,-3.14519,0.0383794,0.00210892,0.205509,0.259013,0.00995576,2,5.02379,3.46325
2,1,Potentiostatic EIS,126.767,3.46324,-0.000332272,0.316227,0.0386622,-3.4085,0.0385938,0.00229864,0.183437,0.257492,0.00995521,2,6.32457,3.46324
2,1,Potentiostatic EIS,141.261,3.46324,-0.000557833,0.251188,0.0388592,-3.75064,0.038776,0.00254194,0.19937,0.256041,0.00994954,2,7.96216,3.46324
2,1,Potentiostatic EIS,159.505,3.46324,-0.00107627,0.199526,0.0391405,-4.0902,0.0390408,0.00279176,0.181204,0.254353,0.0099555,2,10.0238,3.46324
2,1,Potentiostatic EIS,182.475,3.46323,-3.57829e-05,0.158489,0.0394414,-4.53611,0.0393178,0.00311931,0.201616,0.252317,0.00995172,2,12.6192,3.46323
2,1,Potentiostatic EIS,211.389,3.46322,-0.000318048,0.125892,0.0398096,-5.05098,0.039655,0.00350492,0.179363,0.250166,0.00995903,2,15.8866,3.46322
2,1,Potentiostatic EIS,247.78,3.46322,-0.000915151,0.0999997,0.0401674,-5.65141,0.0399722,0.00395552,0.188473,0.247793,0.00995319,2,20.0001,3.46322
2,1,Potentiostatic EIS,293.581,3.46323,0.000409619,0.0794326,0.0405694,-6.34778,0.0403207,0.00448549,0.182584,0.24553,0.00996098,2,25.1786,3.46323
2,1,Potentiostatic EIS,351.238,3.46322,-0.000807929,0.0630957,0.0410535,-7.19158,0.0407305,0.00513938,0.164013,0.242477,0.0099545,2,31.6979,3.46322
2,1,Potentiostatic EIS,423.821,3.46322,-0.000658892,0.0501187,0.0416062,-8.1531,0.0411857,0.00590054,0.173844,0.239341,0.00995804,2,39.9053,3.46322
2,1,Potentiostatic EIS,496.573,3.46323,-0.000203106,0.05,0.0415208,-8.19415,0.0410969,0.00591787,0.182224,0.239743,0.00995429,2,40,3.46323