File: Data/P190/P190_04/EIS_06_P190_04_1/2_EIS_06_P190_04_1 20231011 161412.csv
Step number,Repeats,Step name,Elapsed Time  (s),DC Working Electrode (V),DC Current (A),Frequency (Hz),|Z| (Ohms),Phase (deg),Z' (Ohms),-Z" (Ohms),THD (%),Amplitude (A),Amplitude (V),No of Cycles,Duration of Each Frequency (s),IR Compensated DC Working Electrode (V)
2,1,Potentiostatic EIS,60.2982,3.50376,-0.0108142,1000000,3.13308,88.4435,0.0851018,-3.13192,0.847356,0.00317173,0.00993754,1430,0.00143,3.50376
2,1,Potentiostatic EIS,60.5241,3.50375,-0.0111901,891251,2.80821,88.2102,0.0877099,-2.80684,0.717547,0.00351161,0.00986141,1310,0.00146984,3.50375
2,1,Potentiostatic EIS,60.752,3.50371,-0.0114732,794328,2.52173,88.0488,0.0858602,-2.52027,0.970417,0.00393795,0.00993034,1445,0.00181915,3.50371
2,1,Potentiostatic EIS,60.9847,3.50369,-0.0118906,707946,2.25091,88.0881,0.0750947,-2.24966,0.75258,0.00439714,0.00989754,1340,0.0018928,3.50369
2,1,Potentiostatic EIS,61.2239,3.50367,-0.0124736,630957.25,2.01099,87.6669,0.0818655,-2.00933,0.88027,0.00484533,0.00974342,1355,0.00214753,3.50367
2,1,Potentiostatic EIS,61.486,3.50364,-0.0130762,562341.25,1.79276,87.5468,0.0767362,-1.79111,0.8084,0.00557212,0.00998935,1360,0.00241846,3.50364
2,1,Potentiostatic EIS,61.7555,3.50363,-0.0131021,501187,1.60157,87.5422,0.0686824,-1.6001,0.854948,0.00622549,0.00997058,1385,0.00276344,3.50363
2,1,Potentiostatic EIS,62.0296,3.50362,-0.0134426,446684,1.42861,87.0187,0.0743028,-1.42668,0.89844,0.00695302,0.00993319,1360,0.00304466,3.50362
2,1,Potentiostatic EIS,62.3046,3.5036,-0.0138994,398107,1.28101,86.7847,0.0718501,-1.279,0.75667,0.00777576,0.00996086,1400,0.00351664,3.5036
2,1,Potentiostatic EIS,62.591,3.50357,-0.0143248,354813,1.14264,86.4882,0.0699915,-1.14049,0.892284,0.00869701,0.00993754,1365,0.00384709,3.50357
2,1,Potentiostatic EIS,62.8934,3.50355,-0.0147492,316228,1.0192,86.2717,0.0662742,-1.01704,0.900261,0.00974219,0.00992926,1370,0.00433232,3.50355
2,1,Potentiostatic EIS,63.212,3.50352,-0.0152785,281838.25,0.913488,85.8197,0.0665895,-0.911058,0.877292,0.0109082,0.00996454,1370,0.00486094,3.50352
2,1,Potentiostatic EIS,63.6934,3.50351,-0.0157329,251189,0.817828,85.4949,0.0642387,-0.815301,0.905542,0.0121234,0.00991497,1340,0.00533464,3.50351
2,1,Potentiostatic EIS,64.0479,3.50349,-0.0158819,223872,0.730955,85.4618,0.0578361,-0.728663,0.979715,0.0133597,0.009765,1360,0.0060749,3.50349
2,1,Potentiostatic EIS,64.4532,3.50346,-0.0167281,199526,0.651238,85.2025,0.0544654,-0.648956,1.10448,0.0152483,0.00993029,1355,0.00679109,3.50346
2,1,Potentiostatic EIS,64.8867,3.50343,-0.0173175,177828,0.585331,84.6412,0.0546653,-0.582772,1.10977,0.0169935,0.00994687,1355,0.00761973,3.50343
2,1,Potentiostatic EIS,65.348,3.50339,-0.0180472,158489,0.523462,84.1179,0.0536457,-0.520706,1.08593,0.0190532,0.00997362,1360,0.00858103,3.50339
2,1,Potentiostatic EIS,65.8427,3.50336,-0.0187211,141254,0.468724,83.9976,0.0490148,-0.466154,1.23733,0.0213088,0.00998796,1355,0.00959267,3.50336
2,1,Potentiostatic EIS,66.5978,3.50331,-0.0194046,125892,0.421128,83.2175,0.0497352,-0.41818,1.26494,0.0237006,0.00998094,1370,0.0108823,3.50331
2,1,Potentiostatic EIS,67.1703,3.5033,-0.0200087,112202,0.376712,82.7753,0.0473754,-0.373721,1.2652,0.026516,0.00998889,1360,0.012121,3.5033
2,1,Potentiostatic EIS,67.7357,3.50324,-0.0209202,99999.9,0.336078,82.1489,0.0459078,-0.332928,1.49493,0.0296866,0.00997703,1370,0.0137,3.50324
2,1,Potentiostatic EIS,68.3491,3.50319,-0.0216169,89125.1,0.301767,81.566,0.0442602,-0.298504,1.5068,0.0331565,0.0100055,1365,0.0153156,3.50319
2,1,Potentiostatic EIS,69.0143,3.50315,-0.0223845,79432.8,0.270768,80.7617,0.0434692,-0.267256,1.96591,0.0369671,0.0100095,1365,0.0171843,3.50315
2,1,Potentiostatic EIS,69.7407,3.50313,-0.0226883,70794.5,0.242772,80.1218,0.0416488,-0.239173,1.44956,0.0410976,0.00997736,1370,0.0193518,3.50313
2,1,Potentiostatic EIS,69.9861,3.5031,-0.0234096,63095.7,0.217403,79.4339,0.0398651,-0.213716,1.61327,0.0459073,0.00998036,1290,0.0204451,3.5031
2,1,Potentiostatic EIS,70.2371,3.50306,-0.0239257,56234.1,0.19581,78.4073,0.0393487,-0.191816,1.59799,0.050602,0.00990835,1150,0.0204502,3.50306
2,1,Potentiostatic EIS,70.4843,3.50307,-0.0238677,50118.7,0.176063,77.558,0.0379331,-0.171928,1.732,0.0557802,0.00981994,1025,0.0204515,3.50307
2,1,Potentiostatic EIS,70.7397,3.50304,-0.0243349,44668.3,0.157022,75.9267,0.0381818,-0.152309,1.62086,0.0621206,0.00975454,910,0.0203724,3.50304
2,1,Potentiostatic EIS,71.0793,3.50301,-0.0246614,39810.7,0.141481,74.9983,0.036622,-0.136659,1.71373,0.0687063,0.00972108,815,0.0204719,3.50301
2,1,Potentiostatic EIS,71.4309,3.50343,-0.0142841,35481.3,0.12721,73.687,0.0357312,-0.122089,3.85075,0.0760601,0.00967598,725,0.0204333,3.50343
2,1,Potentiostatic EIS,71.6538,3.50354,-0.0121678,31622.8,0.115435,72.0702,0.0355368,-0.109829,4.75503,0.0869447,0.0100365,645,0.0203967,3.50354
2,1,Potentiostatic EIS,71.8718,3.50354,-0.0120297,28183.8,0.103521,70.6329,0.0343296,-0.0976631,5.2538,0.0962662,0.00996559,575,0.0204018,3.50354
2,1,Potentiostatic EIS,72.0899,3.50385,-0.00408893,25118.8,0.0944772,68.5792,0.0345044,-0.0879511,5.6394,0.106463,0.0100583,510,0.0203035,3.50385
2,1,Potentiostatic EIS,72.3111,3.50388,-0.00406541,22387.2,0.0849802,66.6401,0.0336952,-0.0780145,5.77181,0.117374,0.00997444,455,0.0203241,3.50388
2,1,Potentiostatic EIS,72.5298,3.50391,-0.00359951,19952.6,0.077696,64.4154,0.0335526,-0.0700778,6.06071,0.129519,0.0100632,405,0.0202981,3.50391
2,1,Potentiostatic EIS,72.7476,3.50388,-0.00315505,17782.8,0.0708497,62.1323,0.0331173,-0.0626332,6.35459,0.141353,0.0100148,360,0.0202443,3.50388
2,1,Potentiostatic EIS,72.9493,3.50395,-0.00278282,15848.9,0.0645822,59.5459,0.0327334,-0.0556721,6.40782,0.150603,0.00972597,320,0.0201906,3.50395
2,1,Potentiostatic EIS,73.1518,3.50395,-0.00266625,14125.4,0.0597339,56.6687,0.0328226,-0.0499081,6.49655,0.164124,0.00980367,285,0.0201765,3.50395
2,1,Potentiostatic EIS,73.3532,3.50398,-0.00258202,12589.2,0.0550398,54.0291,0.032329,-0.0445446,6.58364,0.179606,0.00988533,255,0.0202554,3.50398
2,1,Potentiostatic EIS,73.5549,3.504,-0.00233463,11220.2,0.0511909,50.7426,0.0323938,-0.0396377,6.37839,0.193078,0.00988393,225,0.0200532,3.504
2,1,Potentiostatic EIS,73.815,3.50417,-0.00242107,9999.98,0.0479433,48.1624,0.0319792,-0.0357196,3.08709,0.208519,0.00999707,307,0.0307001,3.50417
2,1,Potentiostatic EIS,74.026,3.50416,-0.00240715,8912.5,0.0450884,45.2738,0.0317296,-0.0320343,3.37156,0.235409,0.0106142,273,0.0306311,3.50416
2,1,Potentiostatic EIS,74.2372,3.50418,-0.00212289,7943.27,0.0425102,42.6425,0.0312702,-0.0287973,3.68509,0.247684,0.0105291,244,0.0307178,3.50418
2,1,Potentiostatic EIS,74.4482,3.50419,-0.00182816,7079.45,0.0398576,39.7622,0.0306387,-0.025493,3.94685,0.264028,0.0105235,217,0.0306521,3.50419
2,1,Potentiostatic EIS,74.6595,3.5042,-0.00161644,6309.57,0.0376158,35.6019,0.0305847,-0.021898,4.13182,0.277,0.0104196,193,0.0305885,3.5042
2,1,Potentiostatic EIS,74.8702,3.50421,-0.00134433,5623.41,0.0363085,31.9588,0.0308052,-0.0192184,4.16848,0.28387,0.0103069,172,0.0305864,3.50421
2,1,Potentiostatic EIS,75.0814,3.50422,-0.00149641,5011.87,0.0353494,28.6832,0.0310115,-0.0169665,4.11687,0.288461,0.0101969,153,0.0305276,3.50422
2,1,Potentiostatic EIS,75.2921,3.50423,-0.00116205,4466.83,0.0345516,25.7024,0.031133,-0.0149849,4.02585,0.293229,0.0101315,137,0.0306705,3.50423
2,1,Potentiostatic EIS,75.4595,3.50424,-0.000890617,3981.07,0.0338738,22.8858,0.0312073,-0.0131734,3.941,0.275333,0.00932659,122,0.0306451,3.50424
2,1,Potentiostatic EIS,75.6263,3.50424,-0.000809331,3548.13,0.0333359,20.3635,0.0312525,-0.0116001,3.78155,0.309961,0.0103328,108,0.0304386,3.50424
2,1,Potentiostatic EIS,75.7937,3.50425,-0.000620003,3162.27,0.0329784,17.9635,0.0313708,-0.0101709,3.59493,0.318314,0.0104975,97,0.0306742,3.50425
2,1,Potentiostatic EIS,75.9634,3.50424,-0.00108437,2818.38,0.0326148,15.8413,0.0313762,-0.008903,3.43327,0.318151,0.0103765,86,0.030514,3.50424
2,1,Potentiostatic EIS,76.1306,3.50425,-0.000729205,2511.88,0.0323702,13.7953,0.0314364,-0.00771879,3.30269,0.317609,0.0102811,77,0.0306543,3.50425
2,1,Potentiostatic EIS,76.2982,3.50426,-0.000427962,2238.72,0.0322041,11.9091,0.0315109,-0.00664565,3.12587,0.316355,0.0101879,68,0.0303745,3.50426
2,1,Potentiostatic EIS,76.4655,3.50426,-0.000342896,1995.26,0.0320987,10.1962,0.0315918,-0.0056821,2.95622,0.315328,0.0101216,61,0.0305725,3.50426
2,1,Potentiostatic EIS,76.5891,3.50425,-0.000513983,1778.28,0.0320426,8.68036,0.0316755,-0.00483592,2.76991,0.285034,0.00913322,54,0.0303664,3.50425
2,1,Potentiostatic EIS,76.7135,3.50426,-0.000246977,1584.89,0.0320291,7.25994,0.0317723,-0.00404755,2.72566,0.313507,0.0100414,48,0.030286,3.50426
2,1,Potentiostatic EIS,76.8366,3.50427,-0.000138434,1412.53,0.0320479,5.96077,0.0318747,-0.0033281,2.59154,0.323775,0.0103763,43,0.0304417,3.50427
2,1,Potentiostatic EIS,76.9596,3.50428,8.02896e-05,1258.92,0.0320743,4.76498,0.0319634,-0.00266437,2.61248,0.321556,0.0103137,38,0.0301845,3.50428
2,1,Potentiostatic EIS,77.0823,3.50428,-0.000233511,1122.02,0.0321747,3.72077,0.0321069,-0.00208795,2.43174,0.318507,0.0102479,34,0.0303026,3.50428
2,1,Potentiostatic EIS,77.2071,3.50429,-6.25859e-05,999.999,0.0322774,2.72024,0.0322411,-0.00153186,2.31422,0.314939,0.0101654,30,0.03,3.50429
2,1,Potentiostatic EIS,77.3308,3.50428,-0.000168985,891.25,0.032422,1.82542,0.0324056,-0.00103278,2.27172,0.312274,0.0101246,27,0.0302945,3.50428
2,1,Potentiostatic EIS,77.4531,3.50429,0.000148668,794.328,0.0325528,1.03348,0.0325475,-0.000587145,2.2321,0.310052,0.0100931,24,0.0302142,3.50429
2,1,Potentiostatic EIS,77.5752,3.50428,-3.42287e-05,707.945,0.0327265,0.340027,0.0327259,-0.000194217,2.14031,0.307284,0.0100563,21,0.0296633,3.50428
2,1,Potentiostatic EIS,77.698,3.5043,0.000408391,630.956,0.0328773,-0.334142,0.0328768,0.000191735,2.08888,0.305072,0.0100299,19,0.030113,3.5043
2,1,Potentiostatic EIS,77.8212,3.5043,0.000395974,562.34,0.0330841,-0.899825,0.0330801,0.000519562,2.02739,0.303265,0.0100332,17,0.0302308,3.5043
2,1,Potentiostatic EIS,77.9437,3.5043,0.000580837,501.185,0.0332881,-1.46102,0.0332773,0.000848739,1.96383,0.301189,0.010026,15,0.029929,3.5043
2,1,Potentiostatic EIS,78.0219,3.5043,0.000404351,446.683,0.0335281,-1.89983,0.0335097,0.00111153,1.91464,0.261293,0.00876067,13,0.0291034,3.5043
2,1,Potentiostatic EIS,78.1013,3.50429,0.000269749,398.107,0.0337401,-2.35942,0.0337115,0.00138901,1.85613,0.266939,0.00900655,12,0.0301427,3.50429
2,1,Potentiostatic EIS,78.1795,3.5043,1.40404e-05,354.813,0.0339875,-2.76077,0.033948,0.00163704,1.76655,0.271087,0.00921356,10,0.0281839,3.5043
2,1,Potentiostatic EIS,78.2577,3.50428,9.67268e-05,316.227,0.0342367,-3.11598,0.0341861,0.00186101,1.66727,0.273966,0.00937972,9,0.0284606,3.50428
2,1,Potentiostatic EIS,78.3368,3.50429,0.000191849,281.838,0.0345129,-3.38009,0.0344529,0.00203487,1.54796,0.275623,0.00951255,8,0.0283851,3.50429
2,1,Potentiostatic EIS,78.4171,3.50428,0.000193045,251.188,0.0347789,-3.65247,0.0347083,0.00221557,1.46807,0.276407,0.00961312,8,0.0318487,3.50428
2,1,Potentiostatic EIS,78.5013,3.50428,0.000194447,223.872,0.0350607,-3.90344,0.0349794,0.00238677,1.37013,0.276634,0.009699,8,0.0357347,3.50428
2,1,Potentiostatic EIS,78.5894,3.50429,0.000274523,199.526,0.0353058,-4.08108,0.0352162,0.00251264,1.2729,0.276313,0.00975545,8,0.0400951,3.50429
2,1,Potentiostatic EIS,78.6833,3.50429,0.000463182,177.828,0.03559,-4.22608,0.0354932,0.0026227,1.15982,0.275331,0.00979903,8,0.0449874,3.50429
2,1,Potentiostatic EIS,78.7833,3.50429,0.000360116,158.489,0.0358718,-4.35005,0.0357684,0.00272086,1.09649,0.274219,0.0098367,8,0.0504767,3.50429
2,1,Potentiostatic EIS,78.889,3.50429,0.000374957,141.253,0.0361541,-4.44074,0.0360455,0.00279933,0.980432,0.27285,0.00986464,8,0.0566359,3.50429
2,1,Potentiostatic EIS,79.0005,3.50429,0.000439751,125.892,0.0364407,-4.49523,0.0363286,0.00285609,0.903039,0.271173,0.00988174,8,0.0635464,3.50429
2,1,Potentiostatic EIS,79.1203,3.50429,0.000204894,112.201,0.0367271,-4.52851,0.0366125,0.0028998,0.811486,0.269498,0.00989788,8,0.0713003,3.50429
2,1,Potentiostatic EIS,79.2495,3.50429,0.000181925,99.9997,0.0370166,-4.56281,0.0368993,0.00294474,0.734434,0.267648,0.00990743,8,0.0800003,3.50429
2,1,Potentiostatic EIS,79.3894,3.50428,0.000169652,89.1248,0.037309,-4.55742,0.0371911,0.00296451,0.646793,0.265818,0.00991741,8,0.0897617,3.50428
2,1,Potentiostatic EIS,79.5402,3.50428,5.75642e-05,79.4325,0.0375784,-4.50504,0.0374623,0.00295166,0.580643,0.263914,0.00991747,8,0.100714,3.50428
2,1,Potentiostatic EIS,79.704,3.5043,0.000357801,70.7943,0.0378614,-4.43174,0.0377482,0.0029256,0.529755,0.262083,0.00992284,8,0.113003,3.5043
2,1,Potentiostatic EIS,79.8828,3.5043,0.000407096,63.0956,0.0381372,-4.36444,0.0380266,0.00290225,0.492374,0.260228,0.00992438,8,0.126792,3.5043
2,1,Potentiostatic EIS,80.0773,3.50429,0.000496185,56.2341,0.0383938,-4.30566,0.0382854,0.0028825,0.414216,0.253235,0.00972266,8,0.142263,3.50429
2,1,Potentiostatic EIS,80.2912,3.5043,0.000204599,50.1186,0.0386505,-4.19795,0.0385468,0.00282931,0.373764,0.25215,0.00974575,8,0.159621,3.5043
2,1,Potentiostatic EIS,80.5253,3.50429,0.000104114,44.6682,0.038892,-4.07185,0.0387938,0.00276162,0.344742,0.251188,0.00976919,8,0.179098,3.50429
2,1,Potentiostatic EIS,80.7837,3.50429,1.09074e-05,39.8106,0.0391262,-3.95195,0.0390332,0.00269657,0.302506,0.249998,0.00978149,8,0.200952,3.50429
2,1,Potentiostatic EIS,81.0673,3.50429,0.000509822,35.4812,0.039346,-3.82246,0.0392584,0.002623,0.269431,0.249089,0.00980064,8,0.225471,3.50429
2,1,Potentiostatic EIS,81.2096,3.50429,-0.000438295,31.6227,0.0395646,-3.69178,0.0394825,0.00254753,0.325606,0.250286,0.00990251,2,0.0632458,3.50429
2,1,Potentiostatic EIS,81.3551,3.50428,-0.000385086,28.1838,0.0397716,-3.52078,0.0396965,0.0024424,0.263715,0.24933,0.00991628,2,0.0709628,3.50428
2,1,Potentiostatic EIS,81.5172,3.50429,-0.000162752,25.1188,0.0399742,-3.34793,0.039906,0.00233446,0.239945,0.241535,0.00965513,2,0.0796217,3.50429
2,1,Potentiostatic EIS,81.6968,3.50429,3.00151e-05,22.3871,0.0401344,-3.18645,0.0400724,0.00223089,0.236292,0.242535,0.00973393,2,0.0893371,3.50429
2,1,Potentiostatic EIS,81.8962,3.50429,8.16488e-06,19.9525,0.0403149,-3.04959,0.0402579,0.00214476,0.245064,0.242253,0.00976637,2,0.100238,3.50429
2,1,Potentiostatic EIS,82.1184,3.50429,6.07657e-05,17.7828,0.040479,-2.89681,0.0404273,0.0020457,0.230057,0.242534,0.00981753,2,0.112468,3.50429
2,1,Potentiostatic EIS,82.3657,3.5043,-3.58101e-05,15.8489,0.040613,-2.76917,0.0405655,0.0019621,0.214386,0.242007,0.00982861,2,0.126192,3.5043
2,1,Potentiostatic EIS,82.6408,3.5043,4.4755e-05,14.1253,0.0407202,-2.65151,0.0406766,0.00188376,0.240067,0.24207,0.00985716,2,0.14159,3.5043
2,1,Potentiostatic EIS,82.9472,3.50431,8.02702e-05,12.5892,0.0408458,-2.49064,0.0408073,0.001775,0.213491,0.24175,0.00987455,2,0.158866,3.50431
2,1,Potentiostatic EIS,83.2894,3.50429,-0.000331133,11.2201,0.0409726,-2.35559,0.040938,0.00168402,0.217812,0.241637,0.00990052,2,0.178251,3.50429
2,1,Potentiostatic EIS,83.671,3.5043,-0.000191652,9.99996,0.0410713,-2.2405,0.0410399,0.00160565,0.20282,0.241026,0.00989925,2,0.200001,3.5043
2,1,Potentiostatic EIS,84.0965,3.5043,-0.000135051,8.91248,0.0411722,-2.12674,0.0411439,0.0015279,0.176012,0.240746,0.00991207,2,0.224404,3.5043
2,1,Potentiostatic EIS,84.5719,3.5043,-0.000293905,7.94325,0.0412386,-2.00659,0.0412133,0.00144395,0.213093,0.240662,0.00992455,2,0.251786,3.5043
2,1,Potentiostatic EIS,85.1027,3.50431,-3.01816e-05,7.07944,0.0413312,-1.91912,0.041308,0.00138413,0.175034,0.240109,0.00992398,2,0.282508,3.50431
2,1,Potentiostatic EIS,85.6962,3.5043,-0.000371221,6.30955,0.0414005,-1.82838,0.0413795,0.00132092,0.16458,0.240047,0.00993806,2,0.31698,3.5043
2,1,Potentiostatic EIS,86.36,3.5043,-0.000379694,5.62339,0.0414909,-1.74914,0.0414716,0.00126645,0.173474,0.239515,0.0099377,2,0.355657,3.5043
2,1,Potentiostatic EIS,87.1004,3.50431,-0.000252466,5.01185,0.041532,-1.68426,0.041514,0.00122069,0.167632,0.239417,0.00994344,2,0.399054,3.50431
2,1,Potentiostatic EIS,87.929,3.5043,-0.000365048,4.46682,0.0416033,-1.61667,0.0415868,0.00117373,0.167211,0.239248,0.0099535,2,0.447745,3.5043
2,1,Potentiostatic EIS,88.8571,3.50429,-0.000473453,3.98106,0.0416318,-1.56506,0.0416163,0.00113705,0.180529,0.239056,0.00995233,2,0.502378,3.50429
2,1,Potentiostatic EIS,89.8964,3.50429,-0.000559896,3.54812,0.0416884,-1.52425,0.0416737,0.00110891,0.180251,0.238646,0.00994875,2,0.563679,3.50429
2,1,Potentiostatic EIS,91.061,3.50429,-0.000619423,3.16227,0.0417131,-1.46543,0.0416995,0.00106676,0.180996,0.238573,0.00995162,2,0.632458,3.50429
2,1,Potentiostatic EIS,92.3657,3.50429,-0.000625685,2.81837,0.0417635,-1.45619,0.04175,0.00106131,0.158204,0.2383,0.00995223,2,0.70963,3.50429
2,1,Potentiostatic EIS,93.8282,3.50429,-0.000655799,2.51188,0.0418171,-1.39648,0.0418047,0.00101911,0.185545,0.238107,0.00995696,2,0.796217,3.50429
2,1,Potentiostatic EIS,95.4683,3.50429,-0.000798976,2.23872,0.0418767,-1.42401,0.0418637,0.00104068,0.159233,0.237674,0.00995301,2,0.893369,3.50429
2,1,Potentiostatic EIS,97.3059,3.50429,-0.000877461,1.99526,0.0419067,-1.39451,0.0418943,0.00101986,0.166108,0.237509,0.00995323,2,1.00238,3.50429
2,1,Potentiostatic EIS,99.3663,3.50429,-0.000878487,1.77827,0.0419823,-1.38665,0.04197,0.00101594,0.162332,0.237221,0.00995908,2,1.12469,3.50429
2,1,Potentiostatic EIS,101.676,3.50429,-0.000904763,1.58489,0.0420106,-1.38657,0.0419983,0.00101656,0.186005,0.237029,0.00995774,2,1.26192,3.50429
2,1,Potentiostatic EIS,104.265,3.50429,-0.00081036,1.41253,0.042038,-1.37392,0.0420259,0.00100795,0.15845,0.237033,0.00996441,2,1.4159,3.50429
2,1,Potentiostatic EIS,107.169,3.50429,-0.000683173,1.25892,0.0421414,-1.36424,0.0421295,0.00100331,0.184765,0.236503,0.00996662,2,1.58866,3.50429
2,1,Potentiostatic EIS,110.425,3.50429,-0.000834076,1.12202,0.0421558,-1.41866,0.0421429,0.00104368,0.165267,0.236346,0.00996336,2,1.78251,3.50429
2,1,Potentiostatic EIS,114.076,3.50429,-0.000964257,0.999995,0.042244,-1.41406,0.0422312,0.00104248,0.169257,0.235729,0.00995812,2,2.00001,3.50429
2,1,Potentiostatic EIS,118.172,3.50428,-0.000945875,0.891248,0.0422632,-1.46478,0.0422494,0.00108035,0.155446,0.235741,0.0099632,2,2.24404,3.50428
2,1,Potentiostatic EIS,122.767,3.50429,-0.000721431,0.794324,0.0423507,-1.48857,0.0423364,0.00110016,0.196605,0.235356,0.00996752,2,2.51786,3.50429
2,1,Potentiostatic EIS,127.921,3.5043,-0.000916489,0.707944,0.0424662,-1.51771,0.0424513,0.00112475,0.180893,0.234557,0.00996074,2,2.82508,3.5043
2,1,Potentiostatic EIS,133.7,3.5043,-0.000711979,0.630955,0.0425308,-1.5825,0.0425146,0.00117454,0.154726,0.234115,0.00995709,2,3.1698,3.5043
2,1,Potentiostatic EIS,140.185,3.5043,-0.000829898,0.562339,0.0426504,-1.64004,0.0426329,0.00122066,0.17689,0.233563,0.00996156,2,3.55657,3.5043
2,1,Potentiostatic EIS,147.459,3.50429,-0.000993502,0.501186,0.0426855,-1.69668,0.0426668,0.00126384,0.123148,0.233331,0.00995985,2,3.99054,3.50429
2,1,Potentiostatic EIS,155.619,3.5043,-0.000735652,0.446681,0.0427306,-1.76858,0.0427102,0.00131878,0.167627,0.233124,0.00996153,2,4.47747,3.5043
2,1,Potentiostatic EIS,164.774,3.50431,-0.000642283,0.398106,0.0427746,-1.85304,0.0427522,0.00138316,0.17626,0.233107,0.00997109,2,5.02379,3.50431
2,1,Potentiostatic EIS,175.044,3.50431,-0.000677464,0.354812,0.0427867,-1.93238,0.0427624,0.00144277,0.190886,0.232852,0.00996291,2,5.63679,3.50431
2,1,Potentiostatic EIS,186.559,3.50431,-0.000356556,0.316226,0.0428008,-2.01609,0.0427743,0.00150573,0.1712,0.232829,0.00996523,2,6.32458,3.50431
2,1,Potentiostatic EIS,199.479,3.5043,-0.000728999,0.281837,0.0427793,-2.13046,0.0427497,0.00159032,0.18407,0.232785,0.00995839,2,7.09631,3.5043
2,1,Potentiostatic EIS,213.973,3.5043,-0.000653836,0.251188,0.0427918,-2.2615,0.0427585,0.00168858,0.148193,0.232682,0.00995683,2,7.96218,3.5043
2,1,Potentiostatic EIS,230.236,3.50429,-0.000450195,0.223871,0.0428325,-2.36656,0.042796,0.00176866,0.172286,0.232575,0.00996179,2,8.9337,3.50429
2,1,Potentiostatic EIS,248.479,3.5043,-0.000695081,0.199525,0.0430164,-2.48634,0.0429759,0.00186611,0.181747,0.231564,0.00996105,2,10.0238,3.5043
2,1,Potentiostatic EIS,268.946,3.5043,-0.000356044,0.177827,0.0431353,-2.63192,0.0430898,0.00198076,0.167291,0.230924,0.00996101,2,11.2469,3.5043
2,1,Potentiostatic EIS,291.917,3.50429,-0.000236067,0.158489,0.0432853,-2.76283,0.0432349,0.00208643,0.169614,0.230128,0.00996115,2,12.6192,3.50429
2,1,Potentiostatic EIS,317.681,3.50429,-0.000335045,0.141253,0.0433209,-2.9101,0.043265,0.00219935,0.170732,0.229916,0.00996015,2,14.159,3.50429
2,1,Potentiostatic EIS,346.594,3.50428,6.42474e-05,0.125892,0.0430973,-3.13882,0.0430327,0.00235981,0.272492,0.231134,0.00996082,2,15.8867,3.50428
2,1,Potentiostatic EIS,379.025,3.50428,0.000101502,0.112201,0.0429919,-3.32213,0.0429196,0.00249136,0.168922,0.231646,0.00995893,2,17.8251,3.50428
2,1,Potentiostatic EIS,415.416,3.50428,-0.000280224,0.0999997,0.0431641,-3.52782,0.0430823,0.00265602,0.157585,0.230785,0.00996167,2,20.0001,3.50428
2,1,Potentiostatic EIS,456.245,3.50429,0.000175452,0.0891246,0.0433835,-3.7344,0.0432914,0.00282563,0.164271,0.229617,0.00996163,2,22.4405,3.50429
2,1,Potentiostatic EIS,502.044,3.50428,-0.000226721,0.0794325,0.0436118,-3.97131,0.0435071,0.00302042,0.172386,0.228524,0.00996637,2,25.1786,3.50428
2,1,Potentiostatic EIS,553.443,3.50429,-8.79416e-05,0.0707942,0.0439304,-4.21215,0.0438117,0.00322668,0.158854,0.226792,0.00996307,2,28.2509,3.50429
2,1,Potentiostatic EIS,611.099,3.50429,0.000197015,0.0630955,0.044008,-4.50676,0.0438719,0.003458,0.17727,0.226457,0.00996594,2,31.698,3.50429
2,1,Potentiostatic EIS,675.788,3.50429,-9.56233e-05,0.0562339,0.044211,-4.77934,0.0440573,0.0036836,0.155383,0.225387,0.00996462,2,35.5657,3.50429
2,1,Potentiostatic EIS,748.37,3.5043,0.000756685,0.0501185,0.0413523,-5.48489,0.041163,0.00395259,0.560698,0.241102,0.00996984,2,39.9054,3.5043
2,1,Potentiostatic EIS,821.122,3.50429,0.000507611,0.05,0.0420249,-5.44209,0.0418355,0.00398562,0.197533,0.236946,0.00995765,2,40,3.50429