File: Data/P190_04/EIS_08_P190_04_3/3_EIS_08_P190_04_3 20231019 134503.csv
Step number,Repeats,Step name,Elapsed Time  (s),DC Working Electrode (V),DC Current (A),Frequency (Hz),|Z| (Ohms),Phase (deg),Z' (Ohms),-Z" (Ohms),THD (%),Amplitude (A),Amplitude (V),No of Cycles,Duration of Each Frequency (s),IR Compensated DC Working Electrode (V)
3,1,Potentiostatic EIS,821.816,3.48772,-0.0393079,1000000,3.33747,88.2586,0.101422,-3.33593,1.10681,0.00300168,0.010018,1430,0.00143,3.48772
3,1,Potentiostatic EIS,822.274,3.4877,-0.0326813,990832,3.29629,88.3684,0.0938569,-3.29496,1.14646,0.00300134,0.00989343,1435,0.00144828,3.4877
3,1,Potentiostatic EIS,822.734,3.4877,-0.0288017,981748.125,3.2658,88.3817,0.0922293,-3.2645,1.037,0.00302372,0.00987471,1435,0.00146168,3.4877
3,1,Potentiostatic EIS,823.196,3.48768,-0.0264148,972747,3.23264,88.3487,0.0931539,-3.2313,1.05073,0.00304985,0.00985899,1430,0.00147006,3.48768
3,1,Potentiostatic EIS,823.657,3.48767,-0.0243854,963829,3.20568,88.4019,0.0894035,-3.20444,1.17385,0.00307689,0.00986356,1430,0.00148367,3.48767
3,1,Potentiostatic EIS,824.116,3.48768,-0.0227575,954993,3.18135,88.2612,0.0965318,-3.17989,1.14582,0.00309022,0.0098309,1425,0.00149216,3.48768
3,1,Potentiostatic EIS,824.573,3.48765,-0.0218441,946237,3.14536,88.3,0.0933131,-3.14398,1.02187,0.00314414,0.00988971,1415,0.0014954,3.48765
3,1,Potentiostatic EIS,825.036,3.48768,-0.0205321,937562,3.12147,88.3489,0.0899414,-3.12018,1.07036,0.00316135,0.00986863,1405,0.00149857,3.48768
3,1,Potentiostatic EIS,825.494,3.48763,-0.0198169,928967,3.09487,88.361,0.0885205,-3.0936,1.70056,0.00319613,0.00989144,1450,0.00156087,3.48763
3,1,Potentiostatic EIS,825.942,3.48766,-0.0187987,920450,3.06136,88.1796,0.0972477,-3.05982,1.09586,0.0032172,0.00984918,1440,0.00156445,3.48766
3,1,Potentiostatic EIS,826.389,3.48764,-0.0187517,912011,3.0344,88.3357,0.0881302,-3.03312,1.00848,0.00325287,0.00987055,1425,0.00156248,3.48764
3,1,Potentiostatic EIS,826.844,3.48766,-0.0176492,903650,3.00947,88.2093,0.0940411,-3.008,1.03281,0.00327983,0.00987052,1415,0.00156587,3.48766
3,1,Potentiostatic EIS,827.298,3.48763,-0.0176999,895365.25,2.98376,88.198,0.093827,-2.98229,1.0958,0.00331457,0.00988988,1405,0.00156919,3.48763
3,1,Potentiostatic EIS,827.758,3.48765,-0.0167757,887156,2.95774,88.1219,0.0969367,-2.95615,1.13076,0.00334793,0.00990227,1400,0.00157808,3.48765
3,1,Potentiostatic EIS,828.217,3.48763,-0.0168845,879023,2.93133,88.1612,0.0940596,-2.92982,1.94216,0.00339337,0.00994648,1395,0.00158699,3.48763
3,1,Potentiostatic EIS,828.676,3.48762,-0.0165006,870964,2.90488,88.2247,0.0899923,-2.90349,0.977391,0.00339744,0.00986914,1390,0.00159593,3.48762
3,1,Potentiostatic EIS,829.139,3.48763,-0.0157856,862979,2.87534,88.0825,0.0962125,-2.87373,1.05585,0.00343432,0.00987489,1390,0.0016107,3.48763
3,1,Potentiostatic EIS,829.59,3.48762,-0.0156681,855067.25,2.85781,88.0959,0.0949567,-2.85623,1.0592,0.00344987,0.00985901,1390,0.0016256,3.48762
3,1,Potentiostatic EIS,830.049,3.48764,-0.015096,847228,2.83074,88.0469,0.0964755,-2.82909,1.16434,0.00347993,0.00985074,1390,0.00164064,3.48764
3,1,Potentiostatic EIS,830.51,3.4876,-0.015272,839461,2.81305,88.0735,0.0945653,-2.81146,0.960689,0.00351046,0.00987506,1395,0.00166178,3.4876
3,1,Potentiostatic EIS,830.976,3.48762,-0.014665,831764.375,2.7822,88.18,0.0883614,-2.7808,1.02367,0.0035457,0.00986471,1400,0.00168317,3.48762
3,1,Potentiostatic EIS,831.442,3.48761,-0.0145107,824139,2.7558,88.112,0.0907937,-2.7543,0.994392,0.00359314,0.00990211,1405,0.00170481,3.48761
3,1,Potentiostatic EIS,831.912,3.48763,-0.0141765,816583,2.73583,88.0106,0.0949711,-2.73418,0.997773,0.00362307,0.00991224,1415,0.00173283,3.48763
3,1,Potentiostatic EIS,832.374,3.4876,-0.0141405,809097,2.71309,88.0923,0.0903166,-2.71158,1.17854,0.00364037,0.00987675,1420,0.00175504,3.4876
3,1,Potentiostatic EIS,832.834,3.48761,-0.0137563,801678.625,2.68182,87.9245,0.0971261,-2.68006,1.07644,0.00368544,0.00988369,1430,0.00178376,3.48761
3,1,Potentiostatic EIS,833.295,3.4876,-0.0136348,794329,2.66513,88.069,0.0898025,-2.66362,1.20649,0.00372024,0.009915,1445,0.00181915,3.4876
3,1,Potentiostatic EIS,833.758,3.48764,-0.0130243,787046,2.6413,88.0068,0.0918679,-2.6397,1.13617,0.00374582,0.00989378,1295,0.00164539,3.48764
3,1,Potentiostatic EIS,834.218,3.48762,-0.0132204,779830.875,2.61946,88.0599,0.0886797,-2.61796,1.0881,0.00378194,0.00990662,1310,0.00167985,3.48762
3,1,Potentiostatic EIS,834.681,3.48761,-0.0130391,772681.375,2.59257,88.0261,0.0892975,-2.59103,1.05693,0.00383328,0.00993839,1330,0.00172128,3.48761
3,1,Potentiostatic EIS,835.141,3.4876,-0.0127545,765597.375,2.57068,88.0347,0.0881585,-2.56916,1.09278,0.00386056,0.00992441,1350,0.00176333,3.4876
3,1,Potentiostatic EIS,835.598,3.4876,-0.0126793,758578,2.54846,87.901,0.0933409,-2.54675,1.06288,0.00388365,0.00989726,1370,0.00180601,3.4876
3,1,Potentiostatic EIS,836.063,3.48761,-0.0123486,751624,2.52672,88.0418,0.0863393,-2.52525,1.11243,0.00392848,0.00992625,1390,0.00184933,3.48761
3,1,Potentiostatic EIS,836.525,3.48763,-0.0125648,744733,2.50461,88.0848,0.0837068,-2.50321,0.932017,0.00395904,0.00991572,1410,0.0018933,3.48763
3,1,Potentiostatic EIS,836.988,3.48762,-0.0124663,737905.125,2.48081,88.1684,0.07929,-2.47954,1.15871,0.00398637,0.0098894,1435,0.00194469,3.48762
3,1,Potentiostatic EIS,837.453,3.4876,-0.0125574,731140,2.45974,88.0347,0.0843545,-2.45829,0.989722,0.00403901,0.00993496,1310,0.00179172,3.4876
3,1,Potentiostatic EIS,837.917,3.48759,-0.0119199,724437,2.43201,88.0801,0.0814762,-2.43065,1.00383,0.00406558,0.00988727,1340,0.00184971,3.48759
3,1,Potentiostatic EIS,838.381,3.4876,-0.0119554,717795.25,2.41126,88.0685,0.0812727,-2.40989,1.1339,0.00411528,0.00992297,1365,0.00190166,3.4876
3,1,Potentiostatic EIS,838.842,3.48757,-0.0118038,711215,2.39279,88.0515,0.0813579,-2.39141,1.00226,0.00414386,0.00991553,1395,0.00196143,3.48757
3,1,Potentiostatic EIS,839.306,3.48759,-0.0118832,704694,2.37149,87.9974,0.0828734,-2.37004,1.06728,0.00419071,0.00993815,1425,0.00202215,3.48759
3,1,Potentiostatic EIS,839.772,3.48759,-0.0114928,698233.5,2.34993,88.0882,0.0783978,-2.34862,0.975214,0.00422481,0.00992811,1315,0.00188332,3.48759
3,1,Potentiostatic EIS,840.241,3.48759,-0.0115655,691832,2.3303,87.9974,0.0814337,-2.32888,1.07595,0.00425858,0.0099238,1350,0.00195134,3.48759
3,1,Potentiostatic EIS,840.706,3.48759,-0.0114968,685489.375,2.3105,88.0011,0.0805892,-2.30909,1.0388,0.00430444,0.0099454,1385,0.00202045,3.48759
3,1,Potentiostatic EIS,841.174,3.48758,-0.0114739,679205,2.28766,87.8829,0.0845122,-2.2861,1.17018,0.00434071,0.00993003,1420,0.00209068,3.48758
3,1,Potentiostatic EIS,841.652,3.48758,-0.0117057,672978,2.26621,87.8645,0.0844468,-2.26464,0.99769,0.00438641,0.00994046,1320,0.00196143,3.48758
3,1,Potentiostatic EIS,842.128,3.48757,-0.0111161,666808,2.2422,87.7901,0.0864591,-2.24053,1.10365,0.00442451,0.00992078,1360,0.00203957,3.48757
3,1,Potentiostatic EIS,842.609,3.48757,-0.0113615,660695,2.22738,87.7968,0.0856272,-2.22574,1.13477,0.00445749,0.00992852,1400,0.00211898,3.48757
3,1,Potentiostatic EIS,843.084,3.48759,-0.0108954,654637.375,2.20325,87.6824,0.0890971,-2.20145,1.04057,0.00451787,0.00995402,1305,0.00199347,3.48759
3,1,Potentiostatic EIS,843.556,3.48758,-0.0114264,648635.625,2.18793,87.7247,0.0868649,-2.1862,1.19204,0.0045346,0.00992148,1350,0.00208129,3.48758
3,1,Potentiostatic EIS,844.029,3.48758,-0.0108559,642689,2.16685,87.6175,0.0900781,-2.16497,1.19064,0.00460065,0.00996894,1390,0.00216279,3.48758
3,1,Potentiostatic EIS,844.512,3.48757,-0.0111646,636796.75,2.14259,87.4908,0.0938014,-2.14054,1.0208,0.00462742,0.00991468,1305,0.00204932,3.48757
3,1,Potentiostatic EIS,844.988,3.48757,-0.0108831,630959,2.12858,87.4593,0.0943599,-2.12649,1.06102,0.00465947,0.00991816,1355,0.00214753,3.48757
3,1,Potentiostatic EIS,845.465,3.48757,-0.0109965,625174,2.10882,87.4965,0.0921156,-2.1068,1.08084,0.0046952,0.00990129,1400,0.00223938,3.48757
3,1,Potentiostatic EIS,845.946,3.48758,-0.0104799,619442,2.08863,87.5823,0.0881081,-2.08677,1.10453,0.0047322,0.00988391,1320,0.00213095,3.48758
3,1,Potentiostatic EIS,846.425,3.48758,-0.0108465,613763.25,2.0699,87.5889,0.0870793,-2.06807,1.12204,0.00477369,0.00988088,1370,0.00223213,3.48758
3,1,Potentiostatic EIS,846.904,3.48757,-0.0105905,608136,2.05094,87.5465,0.0877963,-2.04906,1.11535,0.00480963,0.00986433,1420,0.002335,3.48757
3,1,Potentiostatic EIS,847.389,3.48756,-0.0106627,602560.875,2.03367,87.4174,0.0916349,-2.03161,0.996986,0.00485283,0.0098694,1350,0.00224044,3.48756
3,1,Potentiostatic EIS,847.875,3.48758,-0.0103516,597037,2.01541,87.5379,0.0865808,-2.01355,1.09222,0.00488473,0.00984464,1405,0.00235329,3.48758
3,1,Potentiostatic EIS,848.362,3.48756,-0.010696,591562.875,1.99802,87.5028,0.0870559,-1.99612,1.12311,0.00491908,0.00982879,1335,0.00225673,3.48756
3,1,Potentiostatic EIS,848.846,3.48756,-0.0104176,586139,1.97915,87.4638,0.0875798,-1.97721,1.08303,0.00496315,0.00982305,1390,0.00237145,3.48756
3,1,Potentiostatic EIS,849.327,3.48755,-0.0107687,580766,1.95759,87.5017,0.0853312,-1.95573,1.12578,0.0050197,0.00982667,1330,0.00229008,3.48755
3,1,Potentiostatic EIS,849.81,3.48755,-0.0106247,575441.125,1.94596,87.5267,0.0839762,-1.94414,1.09799,0.00504355,0.00981425,1385,0.00240685,3.48755
3,1,Potentiostatic EIS,850.294,3.48754,-0.0106483,570166,1.92209,87.5575,0.0819126,-1.92034,1.09982,0.00509371,0.00979098,1325,0.00232389,3.48754
3,1,Potentiostatic EIS,850.781,3.48756,-0.0104183,564938.25,1.90547,87.3968,0.0865433,-1.90351,1.18762,0.00512955,0.00977417,1385,0.0024516,3.48756
3,1,Potentiostatic EIS,851.265,3.48756,-0.0103548,559758.875,1.892,87.4817,0.0831321,-1.89018,1.26091,0.00516602,0.00977444,1335,0.00238496,3.48756
3,1,Potentiostatic EIS,851.753,3.48754,-0.0104994,554626.875,1.87445,87.4489,0.0834331,-1.87259,1.15393,0.00520191,0.00975072,1395,0.0025152,3.48754
3,1,Potentiostatic EIS,852.245,3.48756,-0.0103572,549542,1.85676,87.54,0.0796954,-1.85505,1.10024,0.00525013,0.00974844,1345,0.00244749,3.48756
3,1,Potentiostatic EIS,852.735,3.48755,-0.010373,544504,1.84148,87.4164,0.0830082,-1.83961,1.11362,0.00528969,0.00974152,1410,0.00258951,3.48755
3,1,Potentiostatic EIS,853.228,3.48758,-0.0100897,539512,1.82751,87.4539,0.0811831,-1.8257,1.14234,0.00533333,0.00974599,1360,0.0025208,3.48758
3,1,Potentiostatic EIS,853.722,3.48753,-0.0103937,534566,1.80911,87.5489,0.0773695,-1.80746,1.14086,0.00536763,0.00971146,1320,0.00246929,3.48753
3,1,Potentiostatic EIS,854.224,3.48757,-0.00991457,529665,1.79062,87.5618,0.0761753,-1.789,1.07496,0.00543073,0.00972412,1385,0.00261486,3.48757
3,1,Potentiostatic EIS,854.72,3.48754,-0.0104393,524808.75,1.77801,87.605,0.0743011,-1.77646,1.12282,0.00545795,0.00970431,1345,0.00256284,3.48754
3,1,Potentiostatic EIS,855.216,3.48755,-0.0100634,519997.25,1.76202,87.5242,0.0761147,-1.76037,1.12756,0.00549813,0.00968801,1415,0.00272117,3.48755
3,1,Potentiostatic EIS,855.71,3.48755,-0.0103841,515230,1.7441,87.5611,0.0742179,-1.74252,1.09248,0.0055497,0.00967894,1380,0.00267842,3.48755
3,1,Potentiostatic EIS,856.216,3.48753,-0.0100414,510506.25,1.72708,87.5608,0.0735034,-1.72552,1.32071,0.00560483,0.00967954,1345,0.00263464,3.48753
3,1,Potentiostatic EIS,856.71,3.48755,-0.0100534,505826,1.71569,87.6531,0.0702573,-1.71425,1.05795,0.00562714,0.00965332,1315,0.00259971,3.48755
3,1,Potentiostatic EIS,857.26,3.48753,-0.0101655,501188,1.69759,87.5565,0.0723745,-1.69605,1.01181,0.00587881,0.00997978,1385,0.00276343,3.48753
3,1,Potentiostatic EIS,857.798,3.48753,-0.0102206,496594,1.68146,87.4645,0.0743848,-1.67981,1.1233,0.00592203,0.00995764,1355,0.00272859,3.48753
3,1,Potentiostatic EIS,858.342,3.4875,-0.0107308,492041,1.66434,87.518,0.0720737,-1.66278,1.09936,0.00598588,0.00996259,1330,0.00270303,3.4875
3,1,Potentiostatic EIS,858.893,3.48752,-0.0103068,487530,1.65229,87.5445,0.0707901,-1.65078,1.20143,0.00602151,0.00994932,1405,0.00288188,3.48752
3,1,Potentiostatic EIS,859.443,3.48754,-0.0102811,483060,1.63948,87.3857,0.074779,-1.63777,1.16046,0.00607241,0.00995561,1385,0.00286714,3.48754
3,1,Potentiostatic EIS,859.988,3.48753,-0.0099932,478631,1.62469,87.4394,0.0725839,-1.62306,1.11339,0.00612567,0.00995233,1365,0.00285188,3.48753
3,1,Potentiostatic EIS,860.534,3.48752,-0.0102167,474243,1.60788,87.2647,0.076731,-1.60605,1.19554,0.00618735,0.00994853,1345,0.0028361,3.48752
3,1,Potentiostatic EIS,861.089,3.48755,-0.00953353,469895,1.59533,87.2384,0.0768644,-1.59348,1.01387,0.00623567,0.00994797,1325,0.00281978,3.48755
3,1,Potentiostatic EIS,861.628,3.48752,-0.00993885,465587,1.57966,87.1632,0.0781787,-1.57772,1.04583,0.00630198,0.00995496,1405,0.00301769,3.48752
3,1,Potentiostatic EIS,862.182,3.48753,-0.00966646,461319,1.56481,87.1937,0.0766126,-1.56293,1.00547,0.00635726,0.0099479,1395,0.00302394,3.48753
3,1,Potentiostatic EIS,862.726,3.48753,-0.00983523,457090,1.55275,87.0451,0.0800432,-1.55069,1.15735,0.00639915,0.00993632,1380,0.0030191,3.48753
3,1,Potentiostatic EIS,863.277,3.48754,-0.00959008,452899,1.53732,87.171,0.0758741,-1.53545,1.0869,0.00647179,0.00994912,1370,0.00302496,3.48754
3,1,Potentiostatic EIS,863.83,3.48753,-0.00961002,448747,1.52443,87.0154,0.0793733,-1.52236,1.07667,0.00651889,0.00993761,1360,0.00303066,3.48753
3,1,Potentiostatic EIS,864.379,3.48752,-0.00981912,444633,1.51244,87.0535,0.0777436,-1.51044,1.06176,0.00659207,0.00997016,1355,0.00304746,3.48752
3,1,Potentiostatic EIS,864.934,3.48751,-0.00970919,440556,1.49755,86.9827,0.0788265,-1.49548,1.06279,0.00664301,0.00994828,1350,0.00306431,3.48751
3,1,Potentiostatic EIS,865.48,3.48752,-0.00983205,436517,1.48695,86.9344,0.07952,-1.48483,1.08306,0.00669454,0.00995443,1345,0.00308121,3.48752
3,1,Potentiostatic EIS,866.031,3.48751,-0.00964922,432515.25,1.47162,86.9204,0.0790615,-1.46949,1.05924,0.00676392,0.0099539,1345,0.00310972,3.48751
3,1,Potentiostatic EIS,866.592,3.4875,-0.00985225,428550,1.45909,86.9434,0.0778016,-1.45702,1.07107,0.00680855,0.00993432,1345,0.00313849,3.4875
3,1,Potentiostatic EIS,867.136,3.48751,-0.00930551,424621,1.44736,86.971,0.0764798,-1.44533,1.14313,0.00688047,0.00995851,1345,0.00316753,3.48751
3,1,Potentiostatic EIS,867.684,3.4875,-0.00987586,420728,1.43187,87.0164,0.0745296,-1.42993,1.13755,0.00694704,0.00994736,1350,0.00320872,3.4875
3,1,Potentiostatic EIS,868.231,3.4875,-0.00938335,416871,1.42065,86.8755,0.0774324,-1.41854,1.01051,0.00700204,0.00994747,1355,0.00325041,3.4875
3,1,Potentiostatic EIS,868.782,3.4875,-0.00992037,413049,1.40581,86.8368,0.0775725,-1.40366,1.16451,0.00708274,0.00995698,1360,0.00329259,3.4875
3,1,Potentiostatic EIS,869.33,3.4875,-0.00956573,409262,1.39653,86.8369,0.0770578,-1.39441,1.08966,0.00713011,0.00995749,1365,0.00333527,3.4875
3,1,Potentiostatic EIS,869.88,3.48751,-0.00929373,405510,1.38599,86.7972,0.0774354,-1.38383,1.14936,0.00718971,0.00996488,1375,0.00339079,3.48751
3,1,Potentiostatic EIS,870.438,3.48751,-0.00973813,401792,1.37136,86.8289,0.0758614,-1.36926,1.21625,0.00726209,0.00995899,1385,0.00344706,3.48751
3,1,Potentiostatic EIS,870.985,3.48752,-0.0090909,398109,1.3606,86.7516,0.0770984,-1.35841,1.2051,0.00730626,0.00994094,1400,0.00351663,3.48752
3,1,Potentiostatic EIS,871.538,3.4875,-0.00944351,394459,1.34838,86.732,0.0768665,-1.34619,0.97803,0.0073836,0.0099559,1330,0.00337171,3.4875
3,1,Potentiostatic EIS,872.094,3.48751,-0.00934116,390842,1.33561,86.7904,0.0747801,-1.33352,1.0216,0.00746136,0.00996548,1345,0.00344129,3.48751
3,1,Potentiostatic EIS,872.648,3.48749,-0.00978333,387259,1.32092,86.7384,0.0751528,-1.31878,1.09085,0.00753998,0.00995974,1365,0.00352477,3.48749
3,1,Potentiostatic EIS,873.201,3.48751,-0.00924564,383708.625,1.30923,86.7159,0.0750009,-1.30708,1.01087,0.00759926,0.0099492,1380,0.00359648,3.48751
3,1,Potentiostatic EIS,873.761,3.4875,-0.00930427,380191,1.29897,86.7721,0.0731432,-1.29691,1.13859,0.00765878,0.00994859,1400,0.00368236,3.4875
3,1,Potentiostatic EIS,874.323,3.4875,-0.009126,376705,1.28455,86.5822,0.0765802,-1.28227,1.03447,0.0077374,0.00993909,1345,0.00357043,3.4875
3,1,Potentiostatic EIS,874.893,3.48751,-0.0092417,373252,1.27569,86.662,0.0742793,-1.27353,1.05598,0.00779246,0.00994077,1365,0.00365705,3.48751
3,1,Potentiostatic EIS,875.463,3.4875,-0.00955349,369830,1.26297,86.7077,0.0725331,-1.26089,0.995762,0.00786808,0.0099372,1390,0.00375849,3.4875
3,1,Potentiostatic EIS,876.034,3.4875,-0.00933315,366439,1.25177,86.6518,0.0731075,-1.24964,1.05107,0.0079533,0.00995575,1340,0.00365682,3.4875
3,1,Potentiostatic EIS,876.602,3.48749,-0.00963791,363079,1.23845,86.5476,0.0745788,-1.2362,1.14871,0.00800977,0.00991977,1365,0.00375951,3.48749
3,1,Potentiostatic EIS,877.176,3.4875,-0.00923507,359751,1.2276,86.6115,0.0725585,-1.22546,1.09225,0.0080945,0.0099369,1395,0.00387769,3.4875
3,1,Potentiostatic EIS,877.747,3.48749,-0.00931686,356452,1.21762,86.5815,0.0726038,-1.21545,1.20952,0.00814357,0.00991575,1350,0.00378732,3.48749
3,1,Potentiostatic EIS,878.323,3.4875,-0.00918325,353185,1.20569,86.6314,0.0708459,-1.2036,1.08824,0.00823964,0.00993437,1380,0.00390731,3.4875
3,1,Potentiostatic EIS,878.901,3.48748,-0.00945612,349946.5,1.19567,86.6269,0.07035,-1.19359,1.08631,0.00831146,0.00993774,1340,0.00382916,3.48748
3,1,Potentiostatic EIS,879.479,3.48747,-0.00978327,346738,1.18259,86.6274,0.0695706,-1.18054,1.174,0.00840592,0.0099408,1375,0.00396553,3.48747
3,1,Potentiostatic EIS,880.067,3.48749,-0.00935063,343559,1.17431,86.5411,0.0708486,-1.17217,1.17154,0.00847211,0.00994887,1340,0.00390035,3.48749
3,1,Potentiostatic EIS,880.652,3.48749,-0.00944596,340410,1.16356,86.6147,0.0687092,-1.16153,1.19051,0.00855433,0.00995355,1375,0.00403925,3.48749
3,1,Potentiostatic EIS,881.237,3.48751,-0.00906688,337288.625,1.1536,86.551,0.0694006,-1.15151,1.1874,0.00862372,0.00994827,1345,0.00398768,3.48751
3,1,Potentiostatic EIS,881.823,3.48749,-0.00970882,334196,1.14263,86.6166,0.0674341,-1.14064,0.956959,0.00868219,0.00992061,1380,0.00412931,3.48749
3,1,Potentiostatic EIS,882.418,3.48748,-0.00967187,331132.5,1.13239,86.6211,0.0667424,-1.13042,1.13595,0.00877095,0.00993221,1355,0.00409202,3.48748
3,1,Potentiostatic EIS,883.006,3.4875,-0.00935001,328097,1.12037,86.3861,0.07062,-1.11814,1.18337,0.00887897,0.00994779,1395,0.0042518,3.4875
3,1,Potentiostatic EIS,883.604,3.48748,-0.00954936,325089,1.11152,86.4888,0.0680744,-1.10944,1.10683,0.00893063,0.00992664,1370,0.00421424,3.48748
3,1,Potentiostatic EIS,884.202,3.48749,-0.00942584,322108.25,1.10243,86.4666,0.0679426,-1.10034,1.18125,0.00901487,0.00993828,1345,0.00417561,3.48749
3,1,Potentiostatic EIS,884.801,3.48746,-0.00993696,319155.125,1.09351,86.332,0.0699574,-1.09127,1.0502,0.00911352,0.00996574,1390,0.00435525,3.48746
3,1,Potentiostatic EIS,885.406,3.48747,-0.00996568,316229,1.08202,86.3643,0.0686132,-1.07985,1.13051,0.00917594,0.00992859,1370,0.0043323,3.48747
3,1,Potentiostatic EIS,886.021,3.48745,-0.0101614,313329.875,1.07376,86.3426,0.0684948,-1.07157,1.11469,0.00926042,0.00994347,1355,0.00432452,3.48745
3,1,Potentiostatic EIS,886.627,3.48746,-0.0100195,310457,1.06335,86.2638,0.0692903,-1.06109,1.10209,0.00936009,0.00995307,1340,0.00431621,3.48746
3,1,Potentiostatic EIS,887.239,3.48746,-0.00978234,307611,1.0552,86.3136,0.0678447,-1.05301,1.13501,0.00940859,0.00992795,1390,0.00451869,3.48746
3,1,Potentiostatic EIS,887.85,3.48745,-0.00997941,304790.875,1.04489,86.349,0.0665365,-1.04277,1.09715,0.00950968,0.00993657,1375,0.00451129,3.48745
3,1,Potentiostatic EIS,888.466,3.48746,-0.00990455,301997,1.03752,86.0761,0.0709987,-1.03509,1.09027,0.00957639,0.00993577,1365,0.00451992,3.48746
3,1,Potentiostatic EIS,889.081,3.48746,-0.00977638,299228,1.02702,86.2067,0.0679449,-1.02477,1.09018,0.00969693,0.00995895,1360,0.00454503,3.48746
3,1,Potentiostatic EIS,889.704,3.48745,-0.00981728,296484.5,1.01884,86.1332,0.0687073,-1.01652,1.1233,0.00977882,0.00996307,1350,0.00455336,3.48745
3,1,Potentiostatic EIS,890.319,3.48746,-0.00945712,293766,1.00951,86.0878,0.0688767,-1.00715,1.15916,0.00984858,0.00994227,1345,0.00457847,3.48746
3,1,Potentiostatic EIS,890.946,3.48748,-0.00942362,291073,1.00214,86.0093,0.069743,-0.999712,1.15997,0.00992462,0.00994589,1340,0.00460366,3.48748
3,1,Potentiostatic EIS,891.57,3.48747,-0.00961605,288405,0.991219,86.1459,0.0666265,-0.988977,1.05646,0.0100086,0.00992075,1340,0.00464625,3.48747
3,1,Potentiostatic EIS,892.197,3.48747,-0.0094361,285760,0.984046,86.0165,0.0683609,-0.981669,0.99535,0.0101118,0.00995048,1340,0.00468924,3.48747
3,1,Potentiostatic EIS,892.834,3.48745,-0.00994549,283141,0.975184,85.9397,0.0690498,-0.972736,1.06597,0.0102282,0.00997437,1340,0.00473263,3.48745
3,1,Potentiostatic EIS,893.471,3.48747,-0.00963356,280545,0.967684,86.0087,0.0673552,-0.965337,1.21873,0.0103047,0.00997172,1345,0.00479424,3.48747
3,1,Potentiostatic EIS,894.108,3.48745,-0.00943963,277973,0.957925,85.9541,0.0675877,-0.955538,1.93022,0.0104207,0.00998229,1350,0.00485659,3.48745
3,1,Potentiostatic EIS,894.754,3.48745,-0.00977449,275424,0.951436,85.9041,0.0679566,-0.949006,1.1862,0.0104611,0.00995315,1355,0.00491968,3.48745
3,1,Potentiostatic EIS,895.398,3.48746,-0.00957055,272899,0.941305,85.8847,0.0675517,-0.938878,1.09284,0.0105628,0.00994287,1365,0.00500185,3.48746
3,1,Potentiostatic EIS,896.041,3.48745,-0.00947953,270397,0.933602,85.8059,0.0682787,-0.931101,1.22674,0.010683,0.00997366,1370,0.00506662,3.48745
3,1,Potentiostatic EIS,896.694,3.48744,-0.00972645,267918,0.925507,85.9366,0.0655818,-0.923181,1.11108,0.0107747,0.00997207,1385,0.00516949,3.48744
3,1,Potentiostatic EIS,897.344,3.48745,-0.009346,265462,0.918665,85.7751,0.0676798,-0.916168,1.19548,0.0108586,0.00997543,1340,0.0050478,3.48745
3,1,Potentiostatic EIS,897.998,3.48746,-0.00936092,263028,0.90965,85.8885,0.0652203,-0.907309,1.11015,0.0109526,0.00996302,1355,0.00515154,3.48746
3,1,Potentiostatic EIS,898.66,3.48742,-0.010214,260616.75,0.901114,85.692,0.0676892,-0.898568,1.09288,0.0110701,0.00997551,1370,0.00525676,3.48742
3,1,Potentiostatic EIS,899.347,3.48744,-0.00984729,258227,0.895179,85.8342,0.0650282,-0.892814,1.26533,0.0111392,0.00997165,1385,0.00536349,3.48744
3,1,Potentiostatic EIS,900.013,3.48744,-0.00954446,255860,0.886199,85.7505,0.0656678,-0.883763,1.16012,0.0112493,0.00996915,1350,0.00527632,3.48744
3,1,Potentiostatic EIS,900.734,3.48743,-0.0100926,253514,0.877567,85.817,0.0640116,-0.87523,1.16478,0.0113732,0.00998084,1370,0.00540403,3.48743
3,1,Potentiostatic EIS,901.398,3.48744,-0.00963375,251190,0.870911,85.7159,0.0650595,-0.868477,1.22346,0.0114377,0.00996121,1340,0.00533461,3.48744
3,1,Potentiostatic EIS,902.131,3.48742,-0.00956649,248887,0.86329,85.7551,0.0639006,-0.860922,1.3933,0.0115853,0.0100015,1365,0.00548441,3.48742
3,1,Potentiostatic EIS,902.812,3.48741,-0.0101054,246605,0.855231,85.6721,0.0645396,-0.852792,1.18478,0.0116588,0.00997096,1385,0.00561626,3.48741
3,1,Potentiostatic EIS,903.492,3.48745,-0.00961135,244344,0.845128,85.7608,0.0624717,-0.842816,1.11896,0.0117851,0.00995992,1360,0.00556591,3.48745
3,1,Potentiostatic EIS,904.173,3.48743,-0.00961632,242104,0.839513,85.7421,0.0623307,-0.837196,1.15553,0.0118928,0.00998413,1340,0.00553481,3.48743
3,1,Potentiostatic EIS,904.857,3.48743,-0.00992862,239885,0.831474,85.7301,0.0619068,-0.829166,1.18925,0.012007,0.0099835,1365,0.00569023,3.48743
3,1,Potentiostatic EIS,905.548,3.48742,-0.0101182,237685,0.824255,85.7323,0.0613385,-0.821969,1.1269,0.0120857,0.00996179,1345,0.00565874,3.48742
3,1,Potentiostatic EIS,906.243,3.48742,-0.00997516,235506,0.817747,85.6902,0.0614527,-0.815434,1.18674,0.0121493,0.00993505,1380,0.00585972,3.48742
3,1,Potentiostatic EIS,906.939,3.48742,-0.00985049,233347,0.809078,85.6685,0.0611071,-0.806768,1.28318,0.0122686,0.00992628,1360,0.00582823,3.48742
3,1,Potentiostatic EIS,907.645,3.48741,-0.0102833,231208,0.803065,85.7064,0.0601228,-0.800811,1.09783,0.0123612,0.00992699,1350,0.0058389,3.48741
3,1,Potentiostatic EIS,908.35,3.48742,-0.00974583,229088.125,0.795813,85.6911,0.0597926,-0.793564,0.98271,0.012462,0.00991746,1380,0.00602388,3.48742
3,1,Potentiostatic EIS,909.06,3.48742,-0.0099368,226988,0.789924,85.7392,0.0586891,-0.78774,1.19856,0.0125444,0.00990893,1370,0.00603557,3.48742
3,1,Potentiostatic EIS,909.764,3.48742,-0.0101124,224907,0.781859,85.7247,0.058286,-0.779683,1.15431,0.0126426,0.00988469,1360,0.00604695,3.48742
3,1,Potentiostatic EIS,910.479,3.4874,-0.0102131,222845,0.774331,85.6602,0.0585948,-0.772111,1.15821,0.0127538,0.00987573,1355,0.00608046,3.4874
3,1,Potentiostatic EIS,911.188,3.48741,-0.00992677,220802,0.768053,85.6447,0.0583266,-0.765835,1.04439,0.0128357,0.00985832,1350,0.00611408,3.48741
3,1,Potentiostatic EIS,911.907,3.48738,-0.0106321,218777,0.760318,85.6371,0.0578398,-0.758114,1.05415,0.0129546,0.00984982,1345,0.0061478,3.48738
3,1,Potentiostatic EIS,912.63,3.4874,-0.0106045,216771.75,0.753977,85.7257,0.0561946,-0.75188,1.04999,0.0130349,0.00982834,1345,0.00620468,3.4874
3,1,Potentiostatic EIS,913.354,3.48739,-0.00979588,214784,0.746819,85.6635,0.0564699,-0.74468,1.22347,0.0131222,0.00979953,1345,0.00626209,3.48739
3,1,Potentiostatic EIS,914.084,3.48739,-0.0101229,212815,0.740573,85.6905,0.0556502,-0.738479,1.14725,0.0132128,0.00978502,1345,0.00632004,3.48739
3,1,Potentiostatic EIS,914.818,3.48738,-0.0102764,210864,0.733173,85.581,0.0564911,-0.730993,1.14842,0.0133281,0.00977213,1345,0.00637852,3.48738
3,1,Potentiostatic EIS,915.553,3.48738,-0.0101737,208931,0.726965,85.6553,0.0550729,-0.724876,1.29972,0.0134344,0.00976686,1350,0.00646146,3.48738
3,1,Potentiostatic EIS,916.284,3.4874,-0.00992667,207015,0.71905,85.5246,0.056108,-0.716857,1.16169,0.0135552,0.00974721,1355,0.00654541,3.4874
3,1,Potentiostatic EIS,917.024,3.48739,-0.0102826,205118,0.713617,85.6114,0.0546061,-0.711525,1.29397,0.0136173,0.00971757,1365,0.00665472,3.48739
3,1,Potentiostatic EIS,917.774,3.4874,-0.010156,203237,0.705366,85.4323,0.0561727,-0.703126,1.17425,0.01377,0.00971375,1375,0.0067655,3.4874
3,1,Potentiostatic EIS,918.526,3.48738,-0.0105339,201374,0.70031,85.5157,0.0547543,-0.698166,1.06141,0.0138475,0.00969798,1385,0.00687776,3.48738
3,1,Potentiostatic EIS,919.281,3.48738,-0.010302,199528,0.693839,85.5229,0.0541609,-0.691722,1.11215,0.0139482,0.00967798,1355,0.00679104,3.48738
3,1,Potentiostatic EIS,920.036,3.48741,-0.0100006,197698,0.687854,85.5455,0.0534234,-0.685777,1.36004,0.0140648,0.00967457,1365,0.00690446,3.48741
3,1,Potentiostatic EIS,920.795,3.48736,-0.0104576,195886,0.682993,85.4292,0.0544285,-0.680821,1.18927,0.0141402,0.00965622,1380,0.00704492,3.48736
3,1,Potentiostatic EIS,921.561,3.48737,-0.0100088,194090,0.676398,85.4524,0.0536296,-0.674268,1.1374,0.0142688,0.00965085,1360,0.00700706,3.48737
3,1,Potentiostatic EIS,922.322,3.48738,-0.0101376,192310,0.670702,85.3763,0.0540656,-0.668519,1.30579,0.0143981,0.00965729,1375,0.0071499,3.48738
3,1,Potentiostatic EIS,923.086,3.4874,-0.009696,190547,0.664144,85.3888,0.0533936,-0.661994,1.13311,0.0145065,0.00963419,1355,0.00711109,3.4874
3,1,Potentiostatic EIS,923.932,3.48736,-0.0104979,188800,0.657961,85.278,0.0541636,-0.655727,1.21413,0.015102,0.00993655,1375,0.00728282,3.48736
3,1,Potentiostatic EIS,924.778,3.48736,-0.0105203,187070,0.654197,85.2494,0.0541795,-0.65195,1.30856,0.015197,0.00994189,1360,0.00727002,3.48736
3,1,Potentiostatic EIS,925.633,3.48735,-0.0110621,185354,0.646614,85.1691,0.0544549,-0.644317,1.20953,0.0153995,0.00995755,1345,0.00725637,3.48735
3,1,Potentiostatic EIS,926.498,3.48737,-0.0107713,183655,0.643038,85.2205,0.0535782,-0.640802,1.2953,0.0154554,0.00993843,1370,0.00745963,3.48737
3,1,Potentiostatic EIS,927.36,3.48737,-0.0103761,181971,0.637425,85.1556,0.0538311,-0.635148,1.15738,0.0156281,0.00996174,1360,0.0074737,3.48737
3,1,Potentiostatic EIS,928.229,3.48736,-0.0104942,180303,0.632099,85.1077,0.0539072,-0.629796,1.17424,0.0157386,0.00994839,1350,0.00748739,3.48736
3,1,Potentiostatic EIS,929.098,3.48737,-0.0102864,178650,0.62572,85.0996,0.0534516,-0.623433,1.182,0.0159326,0.0099694,1380,0.0077246,3.48737
3,1,Potentiostatic EIS,929.971,3.48736,-0.0105036,177012,0.621442,85.0105,0.0540486,-0.619087,1.18346,0.0160526,0.00997578,1375,0.00776783,3.48736
3,1,Potentiostatic EIS,930.847,3.48736,-0.0103836,175389.375,0.615893,84.9617,0.0540885,-0.613513,1.15112,0.0161623,0.00995425,1370,0.00781119,3.48736
3,1,Potentiostatic EIS,931.732,3.48735,-0.0107972,173781,0.610692,84.9905,0.0533259,-0.608359,1.16161,0.0163092,0.0099599,1365,0.0078547,3.48735
3,1,Potentiostatic EIS,932.62,3.48734,-0.0107084,172188,0.605122,84.9858,0.0528897,-0.602806,1.19925,0.0164772,0.00997072,1365,0.00792738,3.48734
3,1,Potentiostatic EIS,933.513,3.48733,-0.0111187,170609,0.600328,84.9276,0.0530781,-0.597977,1.14006,0.016612,0.00997267,1365,0.00800073,3.48733
3,1,Potentiostatic EIS,934.401,3.48734,-0.010576,169045,0.595334,84.8531,0.0534073,-0.592934,1.16798,0.016713,0.00994982,1365,0.00807476,3.48734
3,1,Potentiostatic EIS,935.3,3.48735,-0.0103515,167495,0.589643,84.9601,0.0518001,-0.587363,1.17065,0.0169045,0.00996767,1370,0.00817932,3.48735
3,1,Potentiostatic EIS,936.212,3.48735,-0.0103615,165960,0.584678,84.7876,0.0531169,-0.58226,1.11143,0.0170412,0.00996363,1375,0.00828513,3.48735
3,1,Potentiostatic EIS,937.119,3.48735,-0.0105856,164438,0.577895,84.8211,0.0521641,-0.575536,1.28654,0.0172445,0.00996556,1350,0.00820976,3.48735
3,1,Potentiostatic EIS,938.036,3.48733,-0.0104927,162930.875,0.572732,84.6298,0.0536018,-0.570219,1.08568,0.0174014,0.00996637,1355,0.00831641,3.48733
3,1,Potentiostatic EIS,938.958,3.48735,-0.0105991,161437,0.568314,84.7554,0.051948,-0.565934,1.31211,0.0175414,0.0099691,1365,0.00845531,3.48735
3,1,Potentiostatic EIS,939.879,3.48733,-0.0110641,159957,0.564273,84.7583,0.0515507,-0.561913,1.2836,0.017665,0.00996789,1380,0.00862732,3.48733
3,1,Potentiostatic EIS,940.806,3.48734,-0.0109529,158491,0.559038,84.6672,0.0519573,-0.556618,1.33466,0.0178301,0.00996775,1360,0.00858096,3.48734
3,1,Potentiostatic EIS,941.759,3.48733,-0.0113869,157037,0.553889,84.6332,0.0518057,-0.551461,1.30074,0.0179921,0.00996569,1375,0.00875587,3.48733
3,1,Potentiostatic EIS,942.701,3.48733,-0.0113007,155598,0.550288,84.6825,0.0509975,-0.547919,1.11605,0.0181292,0.00997623,1360,0.00874049,3.48733
3,1,Potentiostatic EIS,943.639,3.48732,-0.0111212,154171,0.543919,84.6781,0.0504487,-0.541574,1.24536,0.0183231,0.00996631,1375,0.00891865,3.48732
3,1,Potentiostatic EIS,944.594,3.48732,-0.0113476,152758,0.539676,84.6878,0.0499647,-0.537358,1.26144,0.0184494,0.00995669,1360,0.00890298,3.48732
3,1,Potentiostatic EIS,945.546,3.48733,-0.0112728,151357,0.535083,84.6808,0.0496048,-0.532779,1.33125,0.0186279,0.00996746,1350,0.00891929,3.48733
3,1,Potentiostatic EIS,946.511,3.48731,-0.0110003,149970,0.529811,84.7314,0.0486498,-0.527573,1.26729,0.0188294,0.00997609,1375,0.00916852,3.48731
3,1,Potentiostatic EIS,947.472,3.48732,-0.0110049,148594.75,0.525647,84.6285,0.0492075,-0.523339,1.1562,0.0189481,0.00995998,1365,0.00918606,3.48732
3,1,Potentiostatic EIS,948.439,3.48732,-0.0106413,147232,0.520253,84.6544,0.0484685,-0.51799,1.20336,0.0191759,0.00997633,1360,0.0092371,3.48732
3,1,Potentiostatic EIS,949.407,3.48732,-0.0112231,145883,0.516358,84.5988,0.048604,-0.514065,1.31126,0.0193171,0.00997456,1355,0.00928829,3.48732
3,1,Potentiostatic EIS,950.401,3.48734,-0.0104546,144545,0.51277,84.5389,0.0488001,-0.510442,1.04211,0.019504,0.0100011,1355,0.00937423,3.48734
3,1,Potentiostatic EIS,951.395,3.48731,-0.0110725,143220,0.507048,84.659,0.0471972,-0.504847,1.16799,0.0196872,0.00998238,1355,0.00946098,3.48731
3,1,Potentiostatic EIS,952.387,3.48733,-0.0107414,141907,0.503509,84.6149,0.0472536,-0.501287,1.12044,0.0198,0.00996953,1355,0.00954851,3.48733
3,1,Potentiostatic EIS,953.397,3.48733,-0.0106459,140606,0.498542,84.5581,0.0472798,-0.496295,1.27158,0.0200283,0.00998494,1355,0.00963687,3.48733
3,1,Potentiostatic EIS,954.403,3.48731,-0.0107413,139317,0.493821,84.526,0.0471076,-0.491569,1.27417,0.0202271,0.00998858,1360,0.00976192,3.48731
3,1,Potentiostatic EIS,955.413,3.48732,-0.0106403,138040,0.490108,84.5656,0.0464161,-0.487905,1.30102,0.0203505,0.00997398,1365,0.00988847,3.48732
3,1,Potentiostatic EIS,956.431,3.48732,-0.0104739,136774,0.485192,84.5669,0.0459398,-0.483012,1.28902,0.0205345,0.00996327,1375,0.0100531,3.48732
3,1,Potentiostatic EIS,957.468,3.48729,-0.011362,135520,0.481474,84.4672,0.0464217,-0.479231,1.22021,0.020741,0.00998629,1355,0.00999852,3.48729
3,1,Potentiostatic EIS,958.493,3.48729,-0.0114279,134277.625,0.47793,84.2978,0.0474862,-0.475565,1.09958,0.0209201,0.00999833,1365,0.0101655,3.48729
3,1,Potentiostatic EIS,959.529,3.48729,-0.0109616,133047,0.473652,84.3117,0.0469469,-0.47132,1.23739,0.0209871,0.00994055,1350,0.0101468,3.48729
3,1,Potentiostatic EIS,960.571,3.48728,-0.0113398,131826.75,0.468655,84.4272,0.0455116,-0.46644,1.52351,0.0212814,0.00997373,1365,0.0103545,3.48728
3,1,Potentiostatic EIS,961.623,3.48728,-0.0115709,130618,0.464832,84.1769,0.0471608,-0.462433,1.36554,0.0214653,0.00997783,1350,0.0103355,3.48728
3,1,Potentiostatic EIS,962.678,3.48729,-0.0110844,129421,0.461191,84.2347,0.0463285,-0.458858,1.45111,0.0216069,0.00996495,1365,0.010547,3.48729
3,1,Potentiostatic EIS,963.736,3.48729,-0.0111514,128234,0.457673,84.169,0.0464974,-0.455305,1.18311,0.0218231,0.00998788,1360,0.0106056,3.48729
3,1,Potentiostatic EIS,964.798,3.48727,-0.0113797,127058,0.453885,84.1767,0.0460516,-0.451542,1.24441,0.0220049,0.00998768,1350,0.010625,3.48727
3,1,Potentiostatic EIS,966.095,3.48727,-0.0115692,125894,0.449588,84.1091,0.0461434,-0.447214,1.2245,0.0221776,0.00997077,1370,0.0108822,3.48727
3,1,Potentiostatic EIS,967.171,3.48727,-0.0114777,124739,0.445466,84.0179,0.0464251,-0.44304,1.30021,0.0223401,0.00995176,1370,0.0109829,3.48727
3,1,Potentiostatic EIS,968.252,3.48727,-0.0113294,123596,0.442099,83.9755,0.0463999,-0.439657,1.24407,0.0226095,0.00999569,1365,0.0110441,3.48727
3,1,Potentiostatic EIS,969.342,3.48727,-0.0115279,122463,0.438106,84.0718,0.0452488,-0.435763,1.42939,0.0227792,0.00997971,1365,0.0111463,3.48727
3,1,Potentiostatic EIS,970.43,3.48726,-0.0116243,121340,0.433757,83.9957,0.0453721,-0.431378,1.19244,0.0229937,0.00997371,1370,0.0112906,3.48726
3,1,Potentiostatic EIS,971.532,3.48727,-0.0116903,120228,0.429508,84.0422,0.0445809,-0.427188,1.35878,0.0232811,0.00999946,1370,0.0113951,3.48727
3,1,Potentiostatic EIS,972.641,3.48725,-0.0117592,119125,0.425819,83.857,0.0455666,-0.423374,1.35659,0.0234693,0.00999372,1375,0.0115425,3.48725
3,1,Potentiostatic EIS,973.761,3.48726,-0.0117214,118033.125,0.422685,83.8298,0.0454314,-0.420236,1.25614,0.0236553,0.00999871,1355,0.0114798,3.48726
3,1,Potentiostatic EIS,974.881,3.48724,-0.0119018,116951,0.41882,83.7968,0.0452555,-0.416368,1.29532,0.0237789,0.00995915,1365,0.0116716,3.48724
3,1,Potentiostatic EIS,976.017,3.48722,-0.0127161,115879,0.415225,83.8593,0.0444165,-0.412843,1.24368,0.0240742,0.00999626,1375,0.0118658,3.48722
3,1,Potentiostatic EIS,977.151,3.48725,-0.0117841,114816,0.411628,83.693,0.0452196,-0.409137,1.25377,0.0242565,0.00998469,1360,0.011845,3.48725
3,1,Potentiostatic EIS,978.292,3.48724,-0.0118586,113763.75,0.407852,83.6717,0.0449558,-0.405367,1.53772,0.0244423,0.00996894,1370,0.0120425,3.48724
3,1,Potentiostatic EIS,979.447,3.48724,-0.0118317,112721,0.404671,83.6733,0.044594,-0.402207,1.40311,0.0247093,0.00999918,1365,0.0121096,3.48724
3,1,Potentiostatic EIS,980.596,3.48724,-0.0115766,111687,0.401406,83.7461,0.0437271,-0.399017,1.26674,0.0248932,0.00999229,1355,0.0121321,3.48724
3,1,Potentiostatic EIS,981.756,3.48722,-0.011914,110663,0.396502,83.5615,0.0444622,-0.394002,1.39027,0.0251592,0.00997569,1370,0.0123799,3.48722
3,1,Potentiostatic EIS,982.924,3.48722,-0.0121966,109649,0.393204,83.6025,0.0438132,-0.390755,1.1335,0.0253711,0.00997604,1365,0.0124488,3.48722
3,1,Potentiostatic EIS,984.1,3.48721,-0.0124242,108644,0.390132,83.6972,0.0428299,-0.387774,1.27488,0.0255888,0.00998303,1365,0.012564,3.48721
3,1,Potentiostatic EIS,985.286,3.48722,-0.0119052,107647,0.386343,83.6504,0.0427278,-0.383973,1.20529,0.0258363,0.00998165,1365,0.0126803,3.48722
3,1,Potentiostatic EIS,986.476,3.48722,-0.0117022,106661,0.382715,83.6639,0.0422369,-0.380377,1.31422,0.0260654,0.00997564,1365,0.0127976,3.48722
3,1,Potentiostatic EIS,987.673,3.48721,-0.0120875,105683,0.379772,83.5364,0.0427515,-0.377358,1.42096,0.0263328,0.0100005,1365,0.012916,3.48721
3,1,Potentiostatic EIS,988.879,3.48722,-0.0119689,104714,0.376296,83.6142,0.0418527,-0.373961,1.26063,0.0265256,0.00998143,1370,0.0130833,3.48722
3,1,Potentiostatic EIS,990.09,3.48723,-0.0117002,103754,0.373368,83.4196,0.0427869,-0.370908,1.23735,0.0267111,0.00997309,1355,0.0130598,3.48723
3,1,Potentiostatic EIS,991.302,3.48721,-0.0116831,102803,0.369986,83.602,0.041229,-0.367681,1.90664,0.0269223,0.00996089,1360,0.0132292,3.48721
3,1,Potentiostatic EIS,992.535,3.48722,-0.0114891,101860,0.365885,83.5185,0.0413018,-0.363546,1.29431,0.0272322,0.00996394,1370,0.0134498,3.48722
3,1,Potentiostatic EIS,993.782,3.4872,-0.011992,100926,0.362741,83.5353,0.0408417,-0.360435,1.3192,0.027438,0.00995285,1360,0.0134752,3.4872
3,1,Potentiostatic EIS,995.033,3.48719,-0.012344,100001,0.360229,83.3364,0.0418006,-0.357796,1.46642,0.0276855,0.00997313,1370,0.0136999,3.48719
3,1,Potentiostatic EIS,996.188,3.48719,-0.01215,99084.2,0.355874,83.3457,0.0412378,-0.353476,1.44687,0.027949,0.00994632,1360,0.0137257,3.48719
3,1,Potentiostatic EIS,997.343,3.48719,-0.0119862,98175.7,0.35332,83.3348,0.0410093,-0.350932,1.43934,0.0282275,0.00997338,1355,0.0138018,3.48719
3,1,Potentiostatic EIS,998.509,3.48721,-0.0113358,97275.6,0.351207,83.345,0.0407019,-0.348841,1.33816,0.0284039,0.00997571,1370,0.0140837,3.48721
3,1,Potentiostatic EIS,999.684,3.4872,-0.0118428,96383.8,0.348006,83.3218,0.0404709,-0.345645,1.41752,0.0286343,0.00996493,1370,0.014214,3.4872
3,1,Potentiostatic EIS,1000.86,3.4872,-0.0123664,95500.1,0.344871,83.2378,0.0406079,-0.342471,1.38643,0.0289526,0.00998496,1370,0.0143455,3.4872
3,1,Potentiostatic EIS,1002.04,3.48718,-0.0123018,94624.6,0.341809,83.1406,0.0408234,-0.339363,1.42431,0.0292031,0.00998192,1370,0.0144783,3.48718
3,1,Potentiostatic EIS,1003.23,3.48719,-0.0119681,93757.1,0.339482,83.155,0.0404606,-0.337062,1.30347,0.0293626,0.00996812,1370,0.0146122,3.48719
3,1,Potentiostatic EIS,1004.43,3.48718,-0.012088,92897.6,0.335633,83.183,0.039839,-0.333261,1.29046,0.0296973,0.00996742,1355,0.014586,3.48718
3,1,Potentiostatic EIS,1005.65,3.48719,-0.0118662,92045.9,0.332776,83.0795,0.040097,-0.330351,1.34469,0.0299942,0.00998138,1365,0.0148296,3.48719
3,1,Potentiostatic EIS,1006.86,3.48718,-0.0121069,91202,0.330323,83.0889,0.0397478,-0.327923,1.41306,0.0302273,0.0099848,1370,0.0150216,3.48718
3,1,Potentiostatic EIS,1008.08,3.48719,-0.0116868,90365.9,0.326927,83.1817,0.038813,-0.324615,1.37302,0.0305309,0.0099814,1360,0.0150499,3.48719
3,1,Potentiostatic EIS,1009.3,3.48719,-0.0115875,89537.4,0.324639,82.9592,0.0397932,-0.322191,1.41495,0.0308004,0.00999902,1370,0.0153009,3.48719
3,1,Potentiostatic EIS,1010.55,3.48718,-0.0118962,88716.5,0.32181,82.9482,0.0395075,-0.319376,1.54591,0.0310413,0.00998943,1365,0.0153861,3.48718
3,1,Potentiostatic EIS,1011.8,3.48719,-0.0121751,87903.1,0.319321,82.9716,0.0390723,-0.316921,1.40854,0.0312798,0.00998831,1360,0.0154716,3.48719
3,1,Potentiostatic EIS,1013.05,3.48717,-0.0126445,87097.2,0.316144,82.9234,0.0389478,-0.313736,1.37788,0.0316137,0.00999456,1355,0.0155573,3.48717
3,1,Potentiostatic EIS,1014.32,3.48716,-0.0123,86298.7,0.313916,82.8153,0.039261,-0.311451,1.54829,0.0318369,0.00999414,1355,0.0157013,3.48716
3,1,Potentiostatic EIS,1015.59,3.48716,-0.0124891,85507.5,0.311354,82.7788,0.0391373,-0.308885,1.3458,0.0320723,0.00998586,1355,0.0158466,3.48716
3,1,Potentiostatic EIS,1016.86,3.48716,-0.0123944,84723.625,0.30805,82.7842,0.0386934,-0.30561,1.28476,0.032443,0.00999413,1355,0.0159932,3.48716
3,1,Potentiostatic EIS,1018.16,3.48715,-0.0125543,83946.8,0.305078,82.7698,0.038396,-0.302652,1.54213,0.0327033,0.00997707,1360,0.0162007,3.48715
3,1,Potentiostatic EIS,1019.46,3.48716,-0.0121886,83177.3,0.302965,82.6312,0.0388569,-0.300463,1.5254,0.0329667,0.00998778,1365,0.0164107,3.48716
3,1,Potentiostatic EIS,1020.76,3.48714,-0.0130092,82414.7,0.300144,82.6906,0.0381867,-0.297704,1.42443,0.0332701,0.00998573,1370,0.0166233,3.48714
3,1,Potentiostatic EIS,1022.08,3.48715,-0.0129039,81659.1,0.297094,82.5618,0.038461,-0.294594,1.37799,0.0335859,0.0099782,1360,0.0166546,3.48715
3,1,Potentiostatic EIS,1023.4,3.48715,-0.0125304,80910.4,0.295189,82.6196,0.0379191,-0.292743,1.5395,0.033865,0.00999657,1355,0.0167469,3.48715
3,1,Potentiostatic EIS,1024.72,3.48715,-0.01264,80168.6,0.292837,82.4567,0.0384421,-0.290303,1.34388,0.0341237,0.00999272,1365,0.0170266,3.48715
3,1,Potentiostatic EIS,1026.07,3.48716,-0.0123993,79433.6,0.28993,82.4453,0.0381178,-0.287413,1.48122,0.034471,0.00999423,1365,0.0171842,3.48716
3,1,Potentiostatic EIS,1027.41,3.48718,-0.0114049,78705.4,0.287016,82.4655,0.0376343,-0.284538,1.47605,0.0347204,0.00996532,1360,0.0172796,3.48718
3,1,Potentiostatic EIS,1028.76,3.48714,-0.0126057,77983.8,0.284993,82.3397,0.0379895,-0.28245,1.5346,0.0350767,0.00999668,1360,0.0174395,3.48714
3,1,Potentiostatic EIS,1030.13,3.48716,-0.0124412,77268.9,0.282518,82.2915,0.037895,-0.279965,1.46674,0.0353651,0.00999133,1360,0.0176009,3.48716
3,1,Potentiostatic EIS,1031.51,3.48714,-0.0122606,76560.5,0.280024,82.3375,0.0373377,-0.277523,1.5478,0.0356398,0.00997996,1365,0.017829,3.48714
3,1,Potentiostatic EIS,1032.91,3.48714,-0.0122978,75858.6,0.277303,82.2943,0.0371822,-0.274799,1.287,0.0359961,0.00998184,1370,0.0180599,3.48714
3,1,Potentiostatic EIS,1034.31,3.48715,-0.0117153,75163,0.275588,82.2013,0.0373951,-0.273039,1.45962,0.0362252,0.00998323,1360,0.018094,3.48715
3,1,Potentiostatic EIS,1035.73,3.48715,-0.0116893,74474,0.272773,82.2547,0.0367614,-0.270284,1.3586,0.036631,0.00999195,1365,0.0183286,3.48715
3,1,Potentiostatic EIS,1037.14,3.48713,-0.012144,73791.2,0.26988,82.1324,0.0369425,-0.26734,1.4906,0.0369389,0.00996912,1360,0.0184304,3.48713
3,1,Potentiostatic EIS,1038.56,3.48716,-0.0115235,73114.7,0.267431,82.1356,0.0365923,-0.264916,1.43942,0.0373079,0.00997732,1355,0.0185325,3.48716
3,1,Potentiostatic EIS,1039.99,3.48713,-0.0121206,72444.3,0.26508,82.0788,0.0365308,-0.26255,1.439,0.0376391,0.00997743,1370,0.0189111,3.48713
3,1,Potentiostatic EIS,1041.43,3.48712,-0.0122415,71780.2,0.263075,81.9676,0.0367604,-0.260494,1.5157,0.0379271,0.00997768,1365,0.0190164,3.48712
3,1,Potentiostatic EIS,1042.89,3.48713,-0.0123383,71122.125,0.260897,81.9464,0.0365515,-0.258324,1.74959,0.0382201,0.00997151,1365,0.0191923,3.48713
3,1,Potentiostatic EIS,1044.35,3.48715,-0.0119574,70470.1,0.259015,81.9886,0.0360988,-0.256487,1.39026,0.0385477,0.00998445,1370,0.0194409,3.48715
3,1,Potentiostatic EIS,1045.83,3.48711,-0.0125234,69824,0.256147,81.9813,0.0357314,-0.253642,1.38258,0.038936,0.00997338,1360,0.0194776,3.48711
3,1,Potentiostatic EIS,1047.31,3.4871,-0.0126065,69183.9,0.253933,81.8484,0.0360058,-0.251368,1.41124,0.0392128,0.00995748,1365,0.01973,3.4871
3,1,Potentiostatic EIS,1048.81,3.48711,-0.0127299,68549.5,0.251623,81.8419,0.0357066,-0.249076,1.38444,0.0395938,0.00996265,1355,0.0197667,3.48711
3,1,Potentiostatic EIS,1050.33,3.48714,-0.0121514,67921.1,0.249728,81.8227,0.0355204,-0.247189,1.55567,0.039975,0.00998291,1365,0.0200969,3.48714
3,1,Potentiostatic EIS,1051.85,3.48713,-0.0122939,67298.4,0.247889,81.7934,0.0353843,-0.245351,1.42116,0.0402832,0.00998581,1360,0.0202085,3.48713
3,1,Potentiostatic EIS,1053.37,3.48714,-0.0120943,66681.4,0.245745,81.8937,0.0346526,-0.24329,1.49323,0.0405591,0.00996724,1360,0.0203955,3.48714
3,1,Potentiostatic EIS,1053.87,3.4871,-0.012807,66070.1,0.243357,81.6525,0.0353297,-0.240779,1.41557,0.0409964,0.00997682,1350,0.0204329,3.4871
3,1,Potentiostatic EIS,1054.37,3.48712,-0.0122604,65464.3,0.241079,81.7007,0.0347984,-0.238554,1.57005,0.0414698,0.0099974,1340,0.0204692,3.48712
3,1,Potentiostatic EIS,1054.87,3.48711,-0.0130966,64864.2,0.238945,81.714,0.0344352,-0.236451,1.55812,0.0417758,0.00998207,1325,0.0204273,3.48711
3,1,Potentiostatic EIS,1055.38,3.48713,-0.0127124,64269.5,0.237263,81.6419,0.0344883,-0.234743,1.59691,0.0421285,0.0099955,1315,0.0204607,3.48713
3,1,Potentiostatic EIS,1055.89,3.48709,-0.0133721,63680.3,0.234625,81.6475,0.0340823,-0.232137,1.55729,0.0424825,0.00996747,1300,0.0204145,3.48709
3,1,Potentiostatic EIS,1056.4,3.48707,-0.0137477,63096.5,0.232532,81.6831,0.0336355,-0.230087,1.51221,0.042844,0.00996262,1290,0.0204449,3.48707
3,1,Potentiostatic EIS,1056.91,3.48707,-0.0137061,62518,0.231509,81.568,0.0339476,-0.229007,1.58299,0.043121,0.00998288,1280,0.0204741,3.48707
3,1,Potentiostatic EIS,1057.4,3.48711,-0.0131837,61944.8,0.228251,81.5168,0.0336715,-0.225754,1.49186,0.043865,0.0100124,1265,0.0204214,3.48711
3,1,Potentiostatic EIS,1057.91,3.48704,-0.0136445,61377,0.2267,81.444,0.0337275,-0.224177,1.66444,0.0439551,0.0099646,1255,0.0204474,3.48704
3,1,Potentiostatic EIS,1058.42,3.48712,-0.0132511,60814.2,0.224845,81.4767,0.0333244,-0.222362,1.59112,0.0444101,0.00998536,1245,0.0204722,3.48712
3,1,Potentiostatic EIS,1058.94,3.48707,-0.0138686,60256.7,0.223087,81.3176,0.0336767,-0.22053,1.49403,0.0446645,0.00996411,1230,0.0204127,3.48707
3,1,Potentiostatic EIS,1059.45,3.48707,-0.0137318,59704.2,0.221398,81.3883,0.0331515,-0.218902,1.39823,0.0451948,0.010006,1220,0.0204341,3.48707
3,1,Potentiostatic EIS,1059.96,3.48708,-0.014242,59156.9,0.219355,81.2287,0.0334497,-0.21679,1.64807,0.0454459,0.00996883,1210,0.0204541,3.48708
3,1,Potentiostatic EIS,1060.48,3.48704,-0.0142054,58614.5,0.217641,81.2389,0.0331499,-0.215101,1.69905,0.0458818,0.00998574,1200,0.0204728,3.48704
3,1,Potentiostatic EIS,1060.99,3.48709,-0.0140233,58077.1,0.216173,81.2019,0.0330644,-0.213629,1.47315,0.0462337,0.00999453,1185,0.0204039,3.48709
3,1,Potentiostatic EIS,1061.49,3.48703,-0.0139465,57544.7,0.213867,81.0316,0.0333397,-0.211252,1.58001,0.046725,0.00999296,1175,0.0204189,3.48703
3,1,Potentiostatic EIS,1062,3.48702,-0.0148134,57017.1,0.21211,81.099,0.0328193,-0.209556,1.62657,0.0471832,0.0100081,1165,0.0204325,3.48702
3,1,Potentiostatic EIS,1062.5,3.48705,-0.0137783,56494.4,0.210298,80.9894,0.0329361,-0.207703,1.60352,0.0475479,0.00999921,1155,0.0204445,3.48705
3,1,Potentiostatic EIS,1063.01,3.48704,-0.0146736,55976.4,0.20832,80.9685,0.0327017,-0.205737,1.72893,0.0479913,0.00999757,1145,0.020455,3.48704
3,1,Potentiostatic EIS,1063.52,3.48701,-0.0146371,55463.2,0.206834,80.8819,0.0327769,-0.20422,1.63881,0.0483264,0.00999557,1135,0.020464,3.48701
3,1,Potentiostatic EIS,1064.03,3.48705,-0.0144227,54954.7,0.20468,80.7886,0.0327645,-0.202041,1.5731,0.0486609,0.00995991,1125,0.0204714,3.48705
3,1,Potentiostatic EIS,1064.54,3.48705,-0.0143837,54450.9,0.203078,80.6772,0.032898,-0.200395,1.565,0.0492486,0.0100015,1115,0.0204772,3.48705
3,1,Potentiostatic EIS,1065.05,3.48706,-0.0140059,53951.7,0.201657,80.703,0.0325782,-0.199008,1.66316,0.0496116,0.0100046,1100,0.0203886,3.48706
3,1,Potentiostatic EIS,1065.57,3.48707,-0.0138812,53457.1,0.199459,80.7083,0.0322049,-0.196842,1.63599,0.0501882,0.0100107,1090,0.0203902,3.48707
3,1,Potentiostatic EIS,1066.08,3.48704,-0.0144182,52967,0.197569,80.6129,0.0322244,-0.194923,1.46457,0.0504641,0.00997016,1080,0.02039,3.48704
3,1,Potentiostatic EIS,1066.58,3.48707,-0.0139622,52481.4,0.196026,80.5687,0.0321218,-0.193376,1.73717,0.0508675,0.00997132,1070,0.0203882,3.48707
3,1,Potentiostatic EIS,1067.1,3.48708,-0.0139507,52000.2,0.193902,80.6198,0.031603,-0.19131,1.53362,0.0514406,0.00997448,1060,0.0203845,3.48708
3,1,Potentiostatic EIS,1067.61,3.48704,-0.0141037,51523.5,0.192338,80.4476,0.0319183,-0.189671,1.52418,0.051701,0.00994413,1055,0.0204761,3.48704
3,1,Potentiostatic EIS,1068.12,3.48704,-0.0134543,51051.1,0.190992,80.4879,0.0315624,-0.188366,1.6791,0.0522717,0.00998337,1045,0.0204697,3.48704
3,1,Potentiostatic EIS,1068.63,3.48706,-0.0136309,50583.1,0.189481,80.3518,0.0317566,-0.186801,1.67456,0.0526035,0.00996729,1035,0.0204614,3.48706
3,1,Potentiostatic EIS,1069.15,3.48707,-0.0139244,50119.3,0.187295,80.2184,0.0318202,-0.184572,1.66355,0.0528433,0.00989772,1025,0.0204512,3.48707
3,1,Potentiostatic EIS,1069.4,3.48697,-0.0146634,50000,0.185368,80.475,0.0306743,-0.182812,1.71704,0.0536018,0.00993745,1020,0.0204,3.48697