File: Data/P190_03/EIS_08_P190_03_4/2_EIS_08_P190_03_4 20231004 155413.csv
Step number,Repeats,Step name,Elapsed Time  (s),DC Working Electrode (V),DC Current (A),Frequency (Hz),|Z| (Ohms),Phase (deg),Z' (Ohms),-Z" (Ohms),THD (%),Amplitude (A),Amplitude (V),No of Cycles,Duration of Each Frequency (s),IR Compensated DC Working Electrode (V)
2,1,Potentiostatic EIS,60.2948,3.52995,-0.0136951,1000000,2.48176,87.4375,0.110957,-2.47928,1.86157,0.00402103,0.00997979,1430,0.00143,3.52995
2,1,Potentiostatic EIS,60.5192,3.52994,-0.0143176,891251,2.21996,87.4674,0.0980958,-2.21779,1.86698,0.00436325,0.00968632,1310,0.00146984,3.52994
2,1,Potentiostatic EIS,60.7698,3.5299,-0.014815,794328,1.9984,87.2523,0.0957981,-1.9961,2.11258,0.00500674,0.0100055,1445,0.00181915,3.5299
2,1,Potentiostatic EIS,61.0171,3.52991,-0.015144,707946,1.78834,87.3897,0.0814452,-1.78649,1.91922,0.00556414,0.0099507,1340,0.0018928,3.52991
2,1,Potentiostatic EIS,61.2726,3.52987,-0.0158976,630957.25,1.5954,86.7235,0.0911842,-1.59279,1.76765,0.00623438,0.00994652,1355,0.00214753,3.52987
2,1,Potentiostatic EIS,61.5356,3.52985,-0.0164495,562341.25,1.4264,86.7411,0.0810873,-1.42409,1.97878,0.00695386,0.0099194,1360,0.00241846,3.52985
2,1,Potentiostatic EIS,61.8013,3.52981,-0.0170911,501187,1.27918,86.7756,0.071949,-1.27716,2.083,0.0077996,0.00997706,1385,0.00276344,3.52981
2,1,Potentiostatic EIS,62.0735,3.52981,-0.0177106,446684,1.14039,86.2537,0.0745114,-1.13795,2.19558,0.00871372,0.00993719,1360,0.00304466,3.52981
2,1,Potentiostatic EIS,62.3549,3.52975,-0.0185003,398107,1.02444,85.9143,0.0729893,-1.02184,2.06439,0.00970713,0.00994459,1400,0.00351664,3.52975
2,1,Potentiostatic EIS,62.7737,3.52976,-0.0188228,354813,0.915367,85.8862,0.0656668,-0.913009,1.78714,0.0108836,0.00996269,1365,0.00384709,3.52976
2,1,Potentiostatic EIS,63.0762,3.5297,-0.0199336,316228,0.815679,85.3589,0.0660003,-0.813004,2.16079,0.0120436,0.00982327,1370,0.00433232,3.5297
2,1,Potentiostatic EIS,63.3967,3.52968,-0.0205007,281838.25,0.73072,84.914,0.0647786,-0.727843,2.02002,0.0132387,0.00967358,1370,0.00486094,3.52968
2,1,Potentiostatic EIS,63.7629,3.52966,-0.0211196,251189,0.657751,84.622,0.061649,-0.654856,2.28413,0.0151829,0.00998664,1340,0.00533464,3.52966
2,1,Potentiostatic EIS,64.1511,3.52959,-0.0224981,223872,0.586605,84.2742,0.058524,-0.583678,2.18384,0.0169888,0.00996579,1360,0.0060749,3.52959
2,1,Potentiostatic EIS,64.5607,3.52953,-0.0233706,199526,0.524942,84.0721,0.0542146,-0.522135,2.25861,0.0189517,0.00994863,1355,0.00679109,3.52953
2,1,Potentiostatic EIS,65.1833,3.52951,-0.0244275,177828,0.472819,83.7357,0.0515918,-0.469995,2.24793,0.021032,0.00994439,1355,0.00761973,3.52951
2,1,Potentiostatic EIS,65.6487,3.52947,-0.0254262,158489,0.420898,83.3553,0.0487032,-0.418071,2.25982,0.0235308,0.00990396,1360,0.00858103,3.52947
2,1,Potentiostatic EIS,66.1458,3.52943,-0.026301,141254,0.379721,83.0923,0.045669,-0.376965,2.29697,0.0263338,0.00999955,1355,0.00959267,3.52943
2,1,Potentiostatic EIS,66.6837,3.52939,-0.0275199,125892,0.3414,82.5168,0.0444622,-0.338492,2.44887,0.0290357,0.009913,1370,0.0108823,3.52939
2,1,Potentiostatic EIS,67.2561,3.52935,-0.0286775,112202,0.305631,81.6248,0.0445168,-0.302372,2.45152,0.032016,0.00978478,1360,0.012121,3.52935
2,1,Potentiostatic EIS,67.8298,3.52925,-0.0305784,99999.9,0.27373,81.5243,0.0403449,-0.270741,2.21032,0.0364286,0.00997167,1370,0.0137,3.52925
2,1,Potentiostatic EIS,68.4481,3.5292,-0.0322234,89125.1,0.244733,80.7258,0.039441,-0.241534,2.45791,0.0406344,0.00994447,1365,0.0153156,3.5292
2,1,Potentiostatic EIS,69.1185,3.52919,-0.031894,79432.8,0.221141,79.9692,0.0385177,-0.217761,3.0195,0.0444826,0.0098369,1365,0.0171843,3.52919
2,1,Potentiostatic EIS,69.8443,3.52915,-0.0332149,70794.5,0.198713,79.3082,0.0368664,-0.195263,2.70542,0.0489795,0.00973297,1370,0.0193518,3.52915
2,1,Potentiostatic EIS,70.1995,3.52914,-0.0348562,63095.7,0.177873,78.8341,0.0344451,-0.174506,2.60427,0.0560621,0.00997212,1290,0.0204451,3.52914
2,1,Potentiostatic EIS,70.5745,3.52967,-0.01642,56234.1,0.160004,78.0357,0.0331691,-0.156528,4.25325,0.0622475,0.00995982,1150,0.0204502,3.52967
2,1,Potentiostatic EIS,70.7954,3.52975,-0.0166272,50118.7,0.145298,77.1712,0.0322617,-0.141671,4.69801,0.0689553,0.0100204,1025,0.0204515,3.52975
2,1,Potentiostatic EIS,71.0202,3.52969,-0.0166371,44668.3,0.129294,75.6009,0.0321522,-0.125232,4.75834,0.0773104,0.00999557,910,0.0203724,3.52969
2,1,Potentiostatic EIS,71.2406,3.52968,-0.0171177,39810.7,0.11627,74.8298,0.0304264,-0.112218,4.92836,0.0861345,0.0100151,815,0.0204719,3.52968
2,1,Potentiostatic EIS,71.4628,3.52965,-0.0170571,35481.3,0.104437,73.5753,0.0295301,-0.100175,5.64954,0.0959993,0.0100258,725,0.0204333,3.52965
2,1,Potentiostatic EIS,71.6847,3.52969,-0.0165696,31622.8,0.0949987,71.8441,0.0296019,-0.0902689,5.63972,0.10579,0.0100501,645,0.0203967,3.52969
2,1,Potentiostatic EIS,71.9031,3.52968,-0.0162637,28183.8,0.0854426,70.7043,0.0282339,-0.0806429,5.98235,0.117154,0.0100099,575,0.0204018,3.52968
2,1,Potentiostatic EIS,72.1218,3.53003,-0.00684357,25118.8,0.0780855,68.915,0.0280914,-0.0728575,6.32542,0.12898,0.0100716,510,0.0203035,3.53003
2,1,Potentiostatic EIS,72.3462,3.53004,-0.00652282,22387.2,0.0701919,67.0649,0.027353,-0.064643,6.81537,0.14244,0.00999799,455,0.0203241,3.53004
2,1,Potentiostatic EIS,72.5673,3.53009,-0.00615191,19952.6,0.0640252,64.9625,0.0270962,-0.0580088,6.58965,0.157485,0.0100834,405,0.0202981,3.53009
2,1,Potentiostatic EIS,72.7892,3.53003,-0.00518307,17782.8,0.0583401,62.9434,0.0265372,-0.0519552,6.55373,0.172172,0.0100441,360,0.0202443,3.53003
2,1,Potentiostatic EIS,73.0087,3.53012,-0.00469489,15848.9,0.0531259,60.6452,0.0260432,-0.0463046,7.27425,0.18867,0.0100235,320,0.0201906,3.53012
2,1,Potentiostatic EIS,73.231,3.53011,-0.00450846,14125.4,0.0493389,58.0575,0.0261036,-0.041868,7.17891,0.202881,0.0100098,285,0.0201765,3.53011
2,1,Potentiostatic EIS,73.4532,3.53013,-0.00426907,12589.2,0.0452538,55.4724,0.0256499,-0.0372825,7.10013,0.221626,0.0100296,255,0.0202554,3.53013
2,1,Potentiostatic EIS,73.6728,3.53013,-0.00346346,11220.2,0.0418524,52.7413,0.0253381,-0.0333108,6.89302,0.23983,0.010038,225,0.0200532,3.53013
2,1,Potentiostatic EIS,73.9769,3.53021,-0.00308504,9999.98,0.0390619,50.2141,0.0249965,-0.0300168,3.10623,0.255694,0.0099879,307,0.0307001,3.53021
2,1,Potentiostatic EIS,74.1883,3.53022,-0.00291438,8912.5,0.0365928,47.5458,0.0247001,-0.0269988,3.44423,0.244251,0.00893783,273,0.0306311,3.53022
2,1,Potentiostatic EIS,74.3996,3.53022,-0.00306081,7943.27,0.034384,45.1459,0.0242511,-0.024375,3.73472,0.27922,0.00960069,244,0.0307178,3.53022
2,1,Potentiostatic EIS,74.6114,3.53022,-0.00280781,7079.45,0.0318867,42.6576,0.02345,-0.021607,3.99656,0.317953,0.0101385,217,0.0306521,3.53022
2,1,Potentiostatic EIS,74.823,3.5302,-0.00304831,6309.57,0.0297766,38.4669,0.0233141,-0.0185229,4.16923,0.35563,0.0105894,193,0.0305885,3.5302
2,1,Potentiostatic EIS,75.0354,3.53023,-0.00247046,5623.41,0.0286174,34.458,0.0235962,-0.0161918,4.2187,0.365893,0.0104709,172,0.0305864,3.53023
2,1,Potentiostatic EIS,75.2457,3.53025,-0.00219218,5011.87,0.0276886,31.0515,0.0237209,-0.014282,4.19984,0.374689,0.0103746,153,0.0305276,3.53025
2,1,Potentiostatic EIS,75.4559,3.53026,-0.00163859,4466.83,0.0269623,27.8412,0.0238413,-0.012592,4.13788,0.382134,0.0103032,137,0.0306705,3.53026
2,1,Potentiostatic EIS,75.6668,3.53027,-0.00139247,3981.07,0.0263274,24.9696,0.0238666,-0.0111138,3.99922,0.387571,0.0102037,122,0.0306451,3.53027
2,1,Potentiostatic EIS,75.878,3.53029,-0.000981517,3548.13,0.0258143,22.2337,0.023895,-0.00976778,3.84969,0.392092,0.0101216,108,0.0304386,3.53029
2,1,Potentiostatic EIS,76.0464,3.5303,-0.000490715,3162.27,0.0254274,19.6929,0.0239402,-0.00856846,3.778,0.359429,0.00913933,97,0.0306742,3.5303
2,1,Potentiostatic EIS,76.2142,3.5303,-0.000817862,2818.38,0.0251131,17.3181,0.0239746,-0.00747558,3.60073,0.404061,0.0101472,86,0.030514,3.5303
2,1,Potentiostatic EIS,76.3813,3.5303,-0.000653284,2511.88,0.0248735,15.1261,0.0240117,-0.00649058,3.41593,0.419749,0.0104406,77,0.0306543,3.5303
2,1,Potentiostatic EIS,76.5482,3.53029,-0.00093169,2238.72,0.024704,13.0404,0.0240669,-0.00557417,3.209,0.418472,0.0103379,68,0.0303745,3.53029
2,1,Potentiostatic EIS,76.716,3.5303,-0.000422125,1995.26,0.0245979,11.1437,0.0241341,-0.00475406,3.04354,0.417189,0.010262,61,0.0305725,3.5303
2,1,Potentiostatic EIS,76.8828,3.53032,0.000166997,1778.28,0.0245287,9.40224,0.0241992,-0.00400713,2.89434,0.414879,0.0101765,54,0.0303664,3.53032
2,1,Potentiostatic EIS,77.0509,3.53033,0.000183637,1584.89,0.0245196,7.81197,0.024292,-0.00333276,2.74468,0.412212,0.0101073,48,0.030286,3.53033
2,1,Potentiostatic EIS,77.1779,3.53032,-0.000310071,1412.53,0.0245194,6.34827,0.024369,-0.00271115,2.52386,0.372086,0.00912332,43,0.0304417,3.53032
2,1,Potentiostatic EIS,77.3015,3.53031,-0.000291648,1258.92,0.0245647,5.0428,0.0244696,-0.00215923,2.5482,0.391563,0.00961863,38,0.0301845,3.53031
2,1,Potentiostatic EIS,77.425,3.53034,0.00010863,1122.02,0.024642,3.84321,0.0245866,-0.00165167,2.43252,0.419944,0.0103483,34,0.0303026,3.53034
2,1,Potentiostatic EIS,77.5473,3.53034,0.000457977,999.999,0.0247422,2.76463,0.0247134,-0.0011934,2.31255,0.414715,0.010261,30,0.03,3.53034
2,1,Potentiostatic EIS,77.6707,3.53034,0.000554847,891.25,0.0248675,1.75504,0.0248558,-0.000761605,2.17487,0.410405,0.0102058,27,0.0302945,3.53034
2,1,Potentiostatic EIS,77.7939,3.53037,0.00108336,794.328,0.0250151,0.889827,0.0250121,-0.000388479,2.16606,0.405895,0.0101535,24,0.0302142,3.53037
2,1,Potentiostatic EIS,77.9172,3.53036,0.00107929,707.945,0.0251845,0.064249,0.0251845,-2.82408e-05,2.12766,0.401879,0.0101211,21,0.0296633,3.53036
2,1,Potentiostatic EIS,78.0403,3.53035,0.000685549,630.956,0.0253578,-0.672626,0.025356,0.000297682,2.06345,0.397278,0.0100741,19,0.030113,3.53035
2,1,Potentiostatic EIS,78.1636,3.53034,0.000318344,562.34,0.0255409,-1.35435,0.0255338,0.000603674,2.03247,0.394192,0.010068,17,0.0302308,3.53034
2,1,Potentiostatic EIS,78.2871,3.53035,0.000571921,501.185,0.0257359,-1.87621,0.0257222,0.000842598,1.97521,0.390357,0.0100462,15,0.029929,3.53035
2,1,Potentiostatic EIS,78.4106,3.53036,0.000643991,446.683,0.0259284,-2.38234,0.025906,0.00107778,1.91952,0.386097,0.0100109,13,0.0291034,3.53036
2,1,Potentiostatic EIS,78.4898,3.53037,0.000747295,398.107,0.0261414,-2.85069,0.0261091,0.0013001,1.93221,0.332356,0.00868826,12,0.0301427,3.53037
2,1,Potentiostatic EIS,78.5688,3.53036,0.000803022,354.813,0.0263739,-3.18918,0.0263331,0.00146726,1.82811,0.33973,0.00896001,10,0.0281839,3.53036
2,1,Potentiostatic EIS,78.6476,3.53036,0.00104123,316.227,0.0266046,-3.56328,0.0265531,0.0016535,1.74608,0.344812,0.00917358,9,0.0284606,3.53036
2,1,Potentiostatic EIS,78.726,3.53036,0.000872952,281.838,0.026822,-3.85802,0.0267612,0.0018047,1.67851,0.348217,0.00933988,8,0.0283851,3.53036
2,1,Potentiostatic EIS,78.8066,3.53036,0.00102105,251.188,0.0270809,-4.09806,0.0270116,0.0019353,1.59011,0.350141,0.00948211,8,0.0318487,3.53036
2,1,Potentiostatic EIS,78.8907,3.53036,0.000984791,223.872,0.0273181,-4.25588,0.0272428,0.0020273,1.46643,0.350917,0.0095864,8,0.0357347,3.53036
2,1,Potentiostatic EIS,78.9808,3.53035,0.000950352,199.526,0.027569,-4.41356,0.0274873,0.00212157,1.39591,0.350891,0.00967372,8,0.0400951,3.53035
2,1,Potentiostatic EIS,79.0748,3.53036,0.000981582,177.828,0.0277984,-4.54379,0.027711,0.00220222,1.27788,0.350072,0.00973145,8,0.0449874,3.53036
2,1,Potentiostatic EIS,79.1744,3.53035,0.000655644,158.489,0.0280361,-4.64894,0.0279439,0.00227234,1.17869,0.348866,0.00978087,8,0.0504767,3.53035
2,1,Potentiostatic EIS,79.2809,3.53035,0.000639183,141.253,0.0282713,-4.67547,0.0281772,0.00230444,1.08171,0.347166,0.00981483,8,0.0566359,3.53035
2,1,Potentiostatic EIS,79.3926,3.53036,0.000742553,125.892,0.0285051,-4.7274,0.0284081,0.00234925,1.02001,0.34534,0.00984395,8,0.0635464,3.53036
2,1,Potentiostatic EIS,79.5139,3.53035,0.000732682,112.201,0.0287366,-4.71624,0.0286393,0.00236276,0.92459,0.343192,0.00986218,8,0.0713003,3.53035
2,1,Potentiostatic EIS,79.6423,3.53035,0.000992257,99.9997,0.0289591,-4.68288,0.0288625,0.00236424,0.851815,0.340986,0.00987465,8,0.0800003,3.53035
2,1,Potentiostatic EIS,79.7817,3.53036,0.00104485,89.1248,0.02918,-4.64232,0.0290843,0.00236169,0.762997,0.338701,0.00988331,8,0.0897617,3.53036
2,1,Potentiostatic EIS,79.9327,3.53036,0.000916822,79.4325,0.0294002,-4.57128,0.0293067,0.00234318,0.703177,0.336457,0.0098919,8,0.100714,3.53036
2,1,Potentiostatic EIS,80.0969,3.53038,0.00104572,70.7943,0.0296112,-4.49319,0.0295202,0.00231976,0.639286,0.33422,0.00989665,8,0.113003,3.53038
2,1,Potentiostatic EIS,80.2761,3.53036,0.00087814,63.0956,0.0298154,-4.40811,0.0297272,0.00229162,0.582118,0.332034,0.00989974,8,0.126792,3.53036
2,1,Potentiostatic EIS,80.472,3.53036,0.00118968,56.2341,0.0300252,-4.31906,0.0299399,0.00226121,0.506492,0.321419,0.00965066,8,0.142263,3.53036
2,1,Potentiostatic EIS,80.6858,3.53036,0.00115308,50.1186,0.030211,-4.20022,0.0301298,0.00221271,0.45384,0.320323,0.00967727,8,0.159621,3.53036
2,1,Potentiostatic EIS,80.92,3.53036,0.00103989,44.6682,0.0303875,-4.06256,0.0303111,0.00215282,0.42854,0.319378,0.00970509,8,0.179098,3.53036
2,1,Potentiostatic EIS,81.1782,3.53035,0.000615413,39.8106,0.0305559,-3.9358,0.0304839,0.00209732,0.401973,0.318268,0.00972497,8,0.200952,3.53035
2,1,Potentiostatic EIS,81.4628,3.53036,0.00103902,35.4812,0.0307285,-3.77982,0.0306617,0.0020257,0.351374,0.317319,0.00975077,8,0.225471,3.53036
2,1,Potentiostatic EIS,81.6049,3.53036,0.000311647,31.6227,0.0308788,-3.63295,0.0308167,0.00195661,0.325765,0.320097,0.0098842,2,0.0632458,3.53036
2,1,Potentiostatic EIS,81.75,3.53036,0.000580149,28.1838,0.0310326,-3.45955,0.0309761,0.00187262,0.307059,0.319012,0.00989978,2,0.0709628,3.53036
2,1,Potentiostatic EIS,81.9121,3.53036,0.00053021,25.1188,0.0311783,-3.30276,0.0311265,0.00179625,0.305659,0.309268,0.0096424,2,0.0796217,3.53036
2,1,Potentiostatic EIS,82.0927,3.53037,0.000936176,22.3871,0.0313001,-3.1685,0.0312522,0.00173004,0.298334,0.309543,0.00968859,2,0.0893371,3.53037
2,1,Potentiostatic EIS,82.2927,3.53035,0.000340439,19.9525,0.0314262,-3.03164,0.0313823,0.00166205,0.276833,0.309877,0.00973822,2,0.100238,3.53035
2,1,Potentiostatic EIS,82.5153,3.53036,0.000468764,17.7828,0.0315367,-2.88851,0.0314966,0.00158922,0.293619,0.310208,0.0097829,2,0.112468,3.53036
2,1,Potentiostatic EIS,82.7626,3.53037,0.000655718,15.8489,0.0316385,-2.72519,0.0316028,0.00150427,0.288358,0.310106,0.00981131,2,0.126192,3.53037
2,1,Potentiostatic EIS,83.038,3.53037,0.000768631,14.1253,0.0317442,-2.60614,0.0317114,0.00144341,0.266871,0.309963,0.00983954,2,0.14159,3.53037
2,1,Potentiostatic EIS,83.3448,3.53036,0.00024375,12.5892,0.0318319,-2.44948,0.0318029,0.00136045,0.267551,0.30988,0.00986413,2,0.158866,3.53036
2,1,Potentiostatic EIS,83.6872,3.53036,0.000142689,11.2201,0.0319089,-2.30306,0.0318831,0.00128226,0.258999,0.309357,0.00987126,2,0.178251,3.53036
2,1,Potentiostatic EIS,84.0691,3.53037,0.000462781,9.99996,0.0320056,-2.2082,0.0319818,0.0012332,0.254257,0.309336,0.0099005,2,0.200001,3.53037
2,1,Potentiostatic EIS,84.4951,3.53035,-0.000344262,8.91248,0.0320571,-2.16154,0.0320343,0.0012091,0.271213,0.308893,0.0099022,2,0.224404,3.53035
2,1,Potentiostatic EIS,84.9704,3.53036,-0.00062775,7.94325,0.0320086,-1.99131,0.0319893,0.00111224,0.354391,0.309458,0.00990533,2,0.251786,3.53036
2,1,Potentiostatic EIS,85.5027,3.53036,-0.000502911,7.07944,0.0320985,-1.91335,0.0320806,0.00107171,0.324375,0.30889,0.00991491,2,0.282508,3.53036
2,1,Potentiostatic EIS,86.0978,3.53037,-0.000226139,6.30955,0.0321794,-1.84755,0.0321627,0.00103747,0.298549,0.308354,0.00992267,2,0.31698,3.53037
2,1,Potentiostatic EIS,86.7617,3.53037,-0.000479738,5.62339,0.0322239,-1.7434,0.032209,0.000980362,0.314483,0.307878,0.00992101,2,0.355657,3.53037
2,1,Potentiostatic EIS,87.5049,3.53037,-0.000472158,5.01185,0.0322747,-1.69947,0.0322605,0.00095717,0.277986,0.307549,0.00992605,2,0.399054,3.53037
2,1,Potentiostatic EIS,88.3373,3.53036,-0.000361909,4.46682,0.0323389,-1.6515,0.0323255,0.000932012,0.308003,0.307043,0.00992942,2,0.447745,3.53036
2,1,Potentiostatic EIS,89.2686,3.53037,-0.000588119,3.98106,0.0323713,-1.61436,0.0323585,0.000911973,0.308784,0.307041,0.00993932,2,0.502378,3.53037
2,1,Potentiostatic EIS,90.3113,3.53036,-0.000739568,3.54812,0.0324202,-1.56332,0.0324081,0.000884476,0.287158,0.306473,0.00993593,2,0.563679,3.53036
2,1,Potentiostatic EIS,91.4755,3.53036,-0.000468608,3.16227,0.0324565,-1.51514,0.0324451,0.000858185,0.292897,0.30615,0.00993656,2,0.632458,3.53036
2,1,Potentiostatic EIS,92.7806,3.53036,-0.000561058,2.81837,0.0325025,-1.50479,0.0324913,0.000853529,0.290398,0.305773,0.00993836,2,0.70963,3.53036
2,1,Potentiostatic EIS,94.2434,3.53037,-0.000656941,2.51188,0.032553,-1.47989,0.0325421,0.000840715,0.286792,0.305225,0.00993599,2,0.796217,3.53037
2,1,Potentiostatic EIS,95.8839,3.53037,-0.000548373,2.23872,0.0325774,-1.49094,0.0325664,0.000847628,0.277302,0.30523,0.00994361,2,0.893369,3.53037
2,1,Potentiostatic EIS,97.7213,3.53036,-0.000750134,1.99526,0.0326196,-1.48233,0.0326086,0.000843823,0.290054,0.304779,0.00994176,2,1.00238,3.53036
2,1,Potentiostatic EIS,99.7818,3.53036,-0.00089758,1.77827,0.0326558,-1.46508,0.0326451,0.000834931,0.305891,0.304277,0.00993641,2,1.12469,3.53036
2,1,Potentiostatic EIS,102.091,3.53036,-0.000665082,1.58489,0.0327006,-1.48282,0.0326897,0.000846197,0.291185,0.304062,0.009943,2,1.26192,3.53036
2,1,Potentiostatic EIS,104.68,3.53036,-0.000740727,1.41253,0.0327322,-1.48817,0.0327212,0.000850075,0.298352,0.303689,0.0099404,2,1.4159,3.53036
2,1,Potentiostatic EIS,107.585,3.53037,-0.000946643,1.25892,0.0327713,-1.51978,0.0327598,0.000869165,0.276542,0.303223,0.00993702,2,1.58866,3.53037
2,1,Potentiostatic EIS,110.842,3.53037,-0.0015831,1.12202,0.032827,-1.55516,0.0328149,0.000890901,0.282894,0.303111,0.00995021,2,1.78251,3.53037
2,1,Potentiostatic EIS,114.493,3.53037,-0.00110401,0.999995,0.0329072,-1.57716,0.0328947,0.000905709,0.298677,0.302416,0.00995167,2,2.00001,3.53037
2,1,Potentiostatic EIS,118.589,3.53036,-0.00131448,0.891248,0.0329274,-1.65927,0.0329135,0.000953431,0.28302,0.302033,0.00994514,2,2.24404,3.53036
2,1,Potentiostatic EIS,123.183,3.53036,-0.00108124,0.794324,0.0329886,-1.68675,0.0329743,0.00097102,0.293975,0.301508,0.00994633,2,2.51786,3.53036
2,1,Potentiostatic EIS,128.337,3.53036,-0.00113354,0.707944,0.0330253,-1.74138,0.0330101,0.00100358,0.308401,0.301126,0.00994478,2,2.82508,3.53036
2,1,Potentiostatic EIS,134.116,3.53036,-0.00123417,0.630955,0.0330782,-1.83486,0.0330612,0.00105913,0.311286,0.300703,0.00994673,2,3.1698,3.53036
2,1,Potentiostatic EIS,140.601,3.53036,-0.00090487,0.562339,0.033122,-1.89002,0.033104,0.0010924,0.274975,0.300349,0.00994816,2,3.55657,3.53036
2,1,Potentiostatic EIS,147.876,3.53036,-0.000912264,0.501186,0.033174,-1.9787,0.0331543,0.00114543,0.298417,0.299875,0.00994805,2,3.99054,3.53036
2,1,Potentiostatic EIS,156.036,3.53036,-0.000993642,0.446681,0.0332137,-2.06536,0.0331922,0.00119701,0.279822,0.299454,0.00994598,2,4.47747,3.53036
2,1,Potentiostatic EIS,165.19,3.53036,-0.000697688,0.398106,0.0332902,-2.16962,0.0332663,0.00126029,0.259453,0.298998,0.00995369,2,5.02379,3.53036
2,1,Potentiostatic EIS,175.459,3.53036,-0.000876873,0.354812,0.033357,-2.27908,0.0333306,0.00132651,0.301367,0.298343,0.00995186,2,5.63679,3.53036
2,1,Potentiostatic EIS,186.975,3.53035,-0.00093221,0.316226,0.0334187,-2.40338,0.0333893,0.0014014,0.297988,0.29759,0.00994509,2,6.32458,3.53035
2,1,Potentiostatic EIS,199.894,3.53036,-0.000512544,0.281837,0.0335332,-2.5489,0.0335,0.00149129,0.287421,0.296666,0.00994819,2,7.09631,3.53036
2,1,Potentiostatic EIS,214.389,3.53036,-0.000889779,0.251188,0.0335523,-2.66118,0.0335161,0.00155782,0.301448,0.296558,0.00995007,2,7.96218,3.53036
2,1,Potentiostatic EIS,230.653,3.53036,-0.000771256,0.223871,0.0335649,-2.83461,0.0335238,0.00165989,0.2756,0.29645,0.0099503,2,8.9337,3.53036
2,1,Potentiostatic EIS,248.897,3.53035,-0.000408373,0.199525,0.0335871,-3.02312,0.0335403,0.00177134,0.265502,0.296023,0.00994252,2,10.0238,3.53035
2,1,Potentiostatic EIS,269.363,3.53036,-0.000775903,0.177827,0.03371,-3.16089,0.0336587,0.00185877,0.268535,0.295221,0.0099519,2,11.2469,3.53036
2,1,Potentiostatic EIS,292.334,3.53036,-0.000409065,0.158489,0.0337689,-3.35074,0.0337112,0.00197373,0.276604,0.294692,0.00995142,2,12.6192,3.53036
2,1,Potentiostatic EIS,318.099,3.53035,-0.000291443,0.141253,0.0338519,-3.55779,0.0337867,0.00210069,0.283395,0.294046,0.00995402,2,14.159,3.53035
2,1,Potentiostatic EIS,347.013,3.53035,-0.000861799,0.125892,0.0339387,-3.76759,0.0338654,0.00223009,0.263666,0.292975,0.00994318,2,15.8867,3.53035
2,1,Potentiostatic EIS,379.446,3.53036,-0.000149628,0.112201,0.0340474,-3.99746,0.0339645,0.00237352,0.282409,0.29224,0.00994997,2,17.8251,3.53036
2,1,Potentiostatic EIS,415.837,3.53035,-0.000310278,0.0999997,0.0341436,-4.26331,0.0340491,0.00253824,0.263993,0.291446,0.00995099,2,20.0001,3.53035
2,1,Potentiostatic EIS,456.666,3.53035,-0.00072398,0.0891246,0.0342645,-4.54361,0.0341568,0.00271436,0.268314,0.290219,0.0099442,2,22.4405,3.53035
2,1,Potentiostatic EIS,502.467,3.53035,0.000118925,0.0794325,0.034776,-4.77148,0.0346555,0.00289273,0.235593,0.286013,0.00994627,2,25.1786,3.53035
2,1,Potentiostatic EIS,553.866,3.53035,-0.000384352,0.0707942,0.0348565,-5.09577,0.0347188,0.00309598,0.254422,0.285637,0.00995627,2,28.2509,3.53035
2,1,Potentiostatic EIS,611.523,3.53035,-0.000559469,0.0630955,0.0349666,-5.42331,0.0348101,0.00330481,0.259651,0.284549,0.0099497,2,31.698,3.53035
2,1,Potentiostatic EIS,676.211,3.53034,-0.000140831,0.0562339,0.0350585,-5.80126,0.034879,0.00354365,0.27272,0.283722,0.00994685,2,35.5657,3.53034
2,1,Potentiostatic EIS,748.794,3.53035,-0.000794433,0.0501185,0.035237,-6.20236,0.0350307,0.00380702,0.264158,0.282332,0.00994853,2,39.9054,3.53035
2,1,Potentiostatic EIS,821.546,3.53035,-0.000530588,0.05,0.0352253,-6.19442,0.0350196,0.00380089,0.25301,0.282477,0.00995036,2,40,3.53035