File: Data/P190_03/EIS_06_P190_03_1/2_EIS_06_P190_03_1 20230921 110304.csv
Step number,Repeats,Step name,Elapsed Time  (s),DC Working Electrode (V),DC Current (A),Frequency (Hz),|Z| (Ohms),Phase (deg),Z' (Ohms),-Z" (Ohms),THD (%),Amplitude (A),Amplitude (V),No of Cycles,Duration of Each Frequency (s),IR Compensated DC Working Electrode (V)
2,1,Potentiostatic EIS,60.2991,3.53732,-0.0151492,1000000,3.56161,88.6537,0.0836813,-3.56063,0.761202,0.00277586,0.00988655,1430,0.00143,3.53732
2,1,Potentiostatic EIS,60.5297,3.53726,-0.016397,794328,2.85801,88.1998,0.0897827,-2.8566,0.911265,0.00346729,0.00990975,1445,0.00181915,3.53726
2,1,Potentiostatic EIS,60.7667,3.53723,-0.0167549,630957.375,2.27941,87.7154,0.0908664,-2.2776,0.773366,0.0043618,0.00994235,1355,0.00214753,3.53723
2,1,Potentiostatic EIS,61.0162,3.53719,-0.0177228,501187.25,1.81882,87.7927,0.0700511,-1.81747,0.852608,0.00534873,0.00972856,1385,0.00276344,3.53719
2,1,Potentiostatic EIS,61.2957,3.53715,-0.0186693,398107,1.45368,87.0806,0.0740372,-1.4518,0.869878,0.00685321,0.00996239,1400,0.00351664,3.53715
2,1,Potentiostatic EIS,61.5978,3.53711,-0.0193075,316228,1.15822,86.6618,0.0674434,-1.15625,0.888307,0.00857444,0.00993109,1370,0.00433232,3.53711
2,1,Potentiostatic EIS,61.9306,3.53708,-0.020245,251189,0.928321,85.9905,0.0649107,-0.926049,0.881615,0.0107453,0.00997506,1340,0.00533464,3.53708
2,1,Potentiostatic EIS,62.3459,3.537,-0.0220253,199526,0.739441,85.8523,0.0534821,-0.737504,1.1045,0.0134279,0.00992918,1355,0.00679109,3.537
2,1,Potentiostatic EIS,62.8104,3.53695,-0.0227614,158489,0.595509,84.9372,0.052552,-0.593186,1.17284,0.0167349,0.00996578,1360,0.00858102,3.53695
2,1,Potentiostatic EIS,63.3449,3.53689,-0.0241503,125893,0.47798,84.3055,0.0474273,-0.475621,1.19581,0.0208918,0.00998588,1370,0.0108823,3.53689
2,1,Potentiostatic EIS,63.9775,3.53682,-0.0257203,100000,0.381843,83.5094,0.0431634,-0.379395,1.57029,0.0261031,0.00996733,1370,0.0137,3.53682
2,1,Potentiostatic EIS,64.6525,3.53675,-0.0269158,79432.8,0.306899,82.4795,0.0401671,-0.304259,1.85877,0.0325602,0.0099927,1365,0.0171843,3.53675
2,1,Potentiostatic EIS,64.8952,3.5367,-0.0285635,63095.7,0.245674,81.5117,0.0362634,-0.242983,1.6126,0.0406504,0.00998681,1290,0.0204451,3.5367
2,1,Potentiostatic EIS,65.1479,3.53661,-0.030074,50118.75,0.200718,79.6803,0.0359568,-0.197471,1.66034,0.0494105,0.00991794,1025,0.0204514,3.53661
2,1,Potentiostatic EIS,65.416,3.53658,-0.0310887,39810.7,0.158843,78.2252,0.0324144,-0.155501,1.78796,0.062464,0.00992196,815,0.0204719,3.53658
2,1,Potentiostatic EIS,65.7563,3.53711,-0.0177955,31622.8,0.129087,75.9871,0.0312572,-0.125246,4.86298,0.0774758,0.0100011,645,0.0203967,3.53711
2,1,Potentiostatic EIS,65.9777,3.53742,-0.00834432,25118.9,0.104587,73.3448,0.0299757,-0.100199,5.29626,0.0960539,0.010046,510,0.0203034,3.53742
2,1,Potentiostatic EIS,66.1809,3.53746,-0.00753454,19952.6,0.0851497,70.2068,0.0288339,-0.0801192,6.01658,0.115162,0.00980628,405,0.0202981,3.53746
2,1,Potentiostatic EIS,66.386,3.53746,-0.00699027,15848.9,0.069471,66.4412,0.0277668,-0.0636806,6.58393,0.141253,0.00981301,320,0.0201906,3.53746
2,1,Potentiostatic EIS,66.5898,3.53746,-0.00695615,12589.2,0.0578424,61.8767,0.0272652,-0.0510132,6.72694,0.17173,0.00993332,255,0.0202554,3.53746
2,1,Potentiostatic EIS,66.8501,3.53752,-0.00658923,9999.98,0.0488685,56.8688,0.0267094,-0.0409235,3.35303,0.204542,0.00999567,307,0.0307001,3.53752
2,1,Potentiostatic EIS,67.0625,3.53753,-0.00646768,7943.27,0.0419699,51.6979,0.0260133,-0.032936,4.11532,0.251713,0.0105644,244,0.0307178,3.53753
2,1,Potentiostatic EIS,67.2748,3.53753,-0.00632584,6309.57,0.0357638,45.5791,0.0250319,-0.0255431,4.71738,0.292056,0.010445,193,0.0305885,3.53753
2,1,Potentiostatic EIS,67.4863,3.53755,-0.00574366,5011.87,0.03213,37.7847,0.025393,-0.0196859,4.80243,0.320323,0.010292,153,0.0305276,3.53755
2,1,Potentiostatic EIS,67.6975,3.53759,-0.00467911,3981.07,0.029869,31.0358,0.0255932,-0.0153997,4.58165,0.33982,0.0101501,122,0.0306451,3.53759
2,1,Potentiostatic EIS,67.8662,3.5376,-0.00445738,3162.27,0.0282859,25.0072,0.0256342,-0.0119573,4.35465,0.347165,0.00981988,97,0.0306742,3.5376
2,1,Potentiostatic EIS,68.0342,3.53761,-0.00454207,2511.88,0.0272936,19.4587,0.0257346,-0.00909224,3.80405,0.381492,0.0104123,77,0.0306543,3.53761
2,1,Potentiostatic EIS,68.2015,3.5376,-0.00443649,1995.26,0.0267249,14.6771,0.0258528,-0.00677132,3.33506,0.382561,0.0102239,61,0.0305725,3.5376
2,1,Potentiostatic EIS,68.3253,3.53761,-0.0042514,1584.89,0.0264846,10.5687,0.0260353,-0.00485767,3.02146,0.323868,0.0085775,48,0.030286,3.53761
2,1,Potentiostatic EIS,68.449,3.53761,-0.00424952,1258.92,0.0264592,7.16474,0.0262526,-0.00330007,2.74262,0.375975,0.00994801,38,0.0301845,3.53761
2,1,Potentiostatic EIS,68.5739,3.53763,-0.00348648,999.999,0.0266029,4.31871,0.0265273,-0.00200331,2.44628,0.385224,0.0102481,30,0.03,3.53763
2,1,Potentiostatic EIS,68.6983,3.53764,-0.0031972,794.328,0.0268761,1.96734,0.0268602,-0.000922648,2.29743,0.377541,0.0101468,24,0.0302142,3.53764
2,1,Potentiostatic EIS,68.8229,3.53763,-0.00337695,630.956,0.027239,0.036164,0.027239,-1.71928e-05,2.13203,0.369886,0.0100753,19,0.030113,3.53763
2,1,Potentiostatic EIS,68.9469,3.53765,-0.00291994,501.187,0.0276596,-1.5094,0.02765,0.000728582,2.01304,0.36328,0.0100482,15,0.029929,3.53765
2,1,Potentiostatic EIS,69.0261,3.53765,-0.00302276,398.107,0.0281717,-2.76963,0.0281388,0.00136126,1.96768,0.312437,0.00880189,12,0.0301427,3.53765
2,1,Potentiostatic EIS,69.1047,3.53764,-0.00322248,316.228,0.0286856,-3.73893,0.0286245,0.0018706,1.79923,0.322748,0.00925822,9,0.0284605,3.53764
2,1,Potentiostatic EIS,69.1853,3.53763,-0.00330683,251.189,0.0292725,-4.4708,0.0291834,0.00228182,1.59513,0.326226,0.00954944,8,0.0318486,3.53763
2,1,Potentiostatic EIS,69.2741,3.53764,-0.00321607,199.526,0.0298697,-5.00058,0.029756,0.00260362,1.41962,0.325543,0.00972388,8,0.0400951,3.53764
2,1,Potentiostatic EIS,69.3734,3.53764,-0.00314774,158.489,0.0304702,-5.30595,0.0303397,0.0028177,1.2167,0.322327,0.00982139,8,0.0504766,3.53764
2,1,Potentiostatic EIS,69.486,3.53765,-0.00315176,125.892,0.0310895,-5.51255,0.0309458,0.00298658,1.06287,0.317715,0.0098776,8,0.0635464,3.53765
2,1,Potentiostatic EIS,69.6151,3.53764,-0.00304264,100,0.0316928,-5.57027,0.0315431,0.0030763,0.88632,0.312427,0.00990167,8,0.08,3.53764
2,1,Potentiostatic EIS,69.7659,3.53765,-0.002922,79.4327,0.0322821,-5.48365,0.0321344,0.00308493,0.695945,0.307076,0.00991307,8,0.100714,3.53765
2,1,Potentiostatic EIS,69.9456,3.53765,-0.00300189,63.0956,0.0328504,-5.30769,0.0327095,0.00303879,0.580394,0.301941,0.00991887,8,0.126792,3.53765
2,1,Potentiostatic EIS,70.1606,3.53765,-0.00275143,50.1186,0.0333668,-5.11824,0.0332338,0.0029767,0.449092,0.290718,0.00970033,8,0.159621,3.53765
2,1,Potentiostatic EIS,70.4188,3.53763,-0.00354084,39.8107,0.0338599,-4.82346,0.03374,0.00284714,0.361429,0.287747,0.00974309,8,0.200951,3.53763
2,1,Potentiostatic EIS,70.5617,3.53765,-0.00371202,31.6228,0.0343111,-4.49087,0.0342057,0.00268657,0.31009,0.28831,0.00989228,2,0.0632456,3.53765
2,1,Potentiostatic EIS,70.7245,3.53766,-0.00319946,25.1188,0.0347356,-4.08614,0.0346473,0.00247512,0.254317,0.27766,0.00964463,2,0.0796217,3.53766
2,1,Potentiostatic EIS,70.9246,3.53765,-0.00328843,19.9526,0.0350986,-3.75743,0.0350232,0.0023001,0.228446,0.277926,0.00975495,2,0.100238,3.53765
2,1,Potentiostatic EIS,71.1718,3.53766,-0.00323019,15.8489,0.0354012,-3.3977,0.035339,0.0020981,0.230469,0.277481,0.00982312,2,0.126192,3.53766
2,1,Potentiostatic EIS,71.4785,3.53765,-0.00340703,12.5892,0.0356697,-3.06721,0.0356186,0.00190859,0.232478,0.276573,0.0098653,2,0.158866,3.53765
2,1,Potentiostatic EIS,71.8599,3.53765,-0.00342849,9.99998,0.0358997,-2.74446,0.0358585,0.00171893,0.248101,0.275807,0.00990141,2,0.2,3.53765
2,1,Potentiostatic EIS,72.3355,3.53765,-0.00356302,7.94328,0.0360895,-2.43759,0.0360568,0.00153493,0.202607,0.275018,0.00992528,2,0.251785,3.53765
2,1,Potentiostatic EIS,72.93,3.53766,-0.00342246,6.30957,0.0362583,-2.20614,0.0362315,0.00139576,0.211972,0.273725,0.00992482,2,0.316979,3.53766
2,1,Potentiostatic EIS,73.6735,3.53766,-0.00351913,5.01186,0.0363778,-2.00683,0.0363555,0.0012739,0.200475,0.27336,0.00994424,2,0.399053,3.53766
2,1,Potentiostatic EIS,74.6037,3.53766,-0.00346029,3.98106,0.036505,-1.84343,0.0364861,0.0011743,0.181374,0.272301,0.00994035,2,0.502378,3.53766
2,1,Potentiostatic EIS,75.7683,3.53766,-0.00356039,3.16227,0.0366055,-1.73325,0.0365887,0.00110718,0.196627,0.271829,0.00995044,2,0.632458,3.53766
2,1,Potentiostatic EIS,77.231,3.53766,-0.00360549,2.51188,0.0367183,-1.65359,0.036703,0.00105956,0.201853,0.270987,0.00995017,2,0.796216,3.53766
2,1,Potentiostatic EIS,79.0699,3.53766,-0.00332855,1.99526,0.0368134,-1.58127,0.0367994,0.00101586,0.188431,0.270191,0.00994667,2,1.00238,3.53766
2,1,Potentiostatic EIS,81.3796,3.53766,-0.00360502,1.58489,0.036897,-1.57019,0.0368831,0.00101104,0.198388,0.269723,0.00995197,2,1.26192,3.53766
2,1,Potentiostatic EIS,84.2839,3.53766,-0.0035554,1.25892,0.0369932,-1.56589,0.0369794,0.00101089,0.219682,0.269045,0.00995285,2,1.58866,3.53766
2,1,Potentiostatic EIS,87.9356,3.53766,-0.00341905,0.999998,0.0370915,-1.61283,0.0370768,0.00104396,0.189419,0.268356,0.0099537,2,2,3.53766
2,1,Potentiostatic EIS,92.5304,3.53766,-0.00374041,0.794327,0.037169,-1.67826,0.037153,0.00108857,0.197049,0.267852,0.00995576,2,2.51785,3.53766
2,1,Potentiostatic EIS,98.3092,3.53765,-0.00348852,0.630956,0.037261,-1.78582,0.0372429,0.00116118,0.198094,0.267226,0.0099571,2,3.16979,3.53765
2,1,Potentiostatic EIS,105.584,3.53765,-0.00294732,0.501186,0.0373379,-1.90046,0.0373173,0.00123824,0.199993,0.26656,0.00995277,2,3.99054,3.53765
2,1,Potentiostatic EIS,114.738,3.53765,-0.00315965,0.398106,0.0374347,-2.07542,0.0374102,0.0013557,0.165802,0.265854,0.00995217,2,5.02379,3.53765
2,1,Potentiostatic EIS,126.254,3.53765,-0.00248252,0.316227,0.037583,-2.29932,0.0375528,0.00150783,0.184075,0.264898,0.00995567,2,6.32457,3.53765
2,1,Potentiostatic EIS,140.749,3.53765,-0.00209467,0.251188,0.0377349,-2.54323,0.0376978,0.00167442,0.177951,0.263869,0.00995707,2,7.96216,3.53765
2,1,Potentiostatic EIS,158.993,3.53765,-0.00245428,0.199526,0.0378906,-2.81896,0.0378448,0.00186348,0.185047,0.262774,0.00995667,2,10.0238,3.53765
2,1,Potentiostatic EIS,181.964,3.53765,-0.00152795,0.158489,0.0380735,-3.15188,0.0380159,0.0020934,0.184828,0.261591,0.00995965,2,12.6192,3.53765
2,1,Potentiostatic EIS,210.877,3.53765,-0.00171496,0.125892,0.0382663,-3.56426,0.0381922,0.00237894,0.179817,0.260243,0.00995851,2,15.8866,3.53765
2,1,Potentiostatic EIS,247.269,3.53764,-0.00190556,0.0999997,0.0384913,-3.99574,0.0383978,0.00268217,0.184125,0.258697,0.00995757,2,20.0001,3.53764