File: Data/P190/P190_03/EIS_08_P190_03_3/2_EIS_08_P190_03_3 20231004 152042.csv
Step number,Repeats,Step name,Elapsed Time  (s),DC Working Electrode (V),DC Current (A),Frequency (Hz),|Z| (Ohms),Phase (deg),Z' (Ohms),-Z" (Ohms),THD (%),Amplitude (A),Amplitude (V),No of Cycles,Duration of Each Frequency (s),IR Compensated DC Working Electrode (V)
2,1,Potentiostatic EIS,60.2992,3.53131,-0.0137012,1000000,1.76835,86.8003,0.0987031,-1.76559,0.755604,0.00567791,0.0100405,1430,0.00143,3.53131
2,1,Potentiostatic EIS,60.544,3.53125,-0.0151906,891251,1.58462,86.6261,0.0932587,-1.58188,0.756202,0.00628349,0.00995688,1310,0.00146984,3.53125
2,1,Potentiostatic EIS,60.7963,3.53122,-0.0161303,794328,1.42398,86.4335,0.088581,-1.42122,0.928621,0.00704981,0.0100388,1445,0.00181915,3.53122
2,1,Potentiostatic EIS,61.0461,3.53118,-0.017076,707946,1.27447,86.4956,0.0779026,-1.27208,0.771407,0.00783908,0.00999063,1340,0.0018928,3.53118
2,1,Potentiostatic EIS,61.3072,3.53113,-0.0183282,630957.25,1.1376,85.9375,0.0805935,-1.13475,0.923222,0.00877429,0.0099817,1355,0.00214753,3.53113
2,1,Potentiostatic EIS,61.5721,3.5311,-0.0188312,562341.25,1.01687,85.8271,0.0739951,-1.01418,0.923546,0.00978592,0.00995103,1360,0.00241846,3.5311
2,1,Potentiostatic EIS,61.8405,3.53107,-0.0198646,501187,0.913996,85.9015,0.0653239,-0.911659,1.06649,0.0107638,0.00983796,1385,0.00276344,3.53107
2,1,Potentiostatic EIS,62.116,3.53104,-0.0205401,446684,0.81572,85.2978,0.0668702,-0.812974,1.03765,0.01187,0.00968278,1360,0.00304466,3.53104
2,1,Potentiostatic EIS,62.4196,3.53101,-0.0211802,398107,0.732278,84.9234,0.0647972,-0.729406,1.15759,0.013608,0.00996488,1400,0.00351664,3.53101
2,1,Potentiostatic EIS,62.74,3.53096,-0.0224791,354813,0.653454,84.7334,0.059981,-0.650695,1.30143,0.015207,0.00993704,1365,0.00384709,3.53096
2,1,Potentiostatic EIS,63.0716,3.53091,-0.0236669,316228,0.584418,84.3998,0.0570314,-0.581629,1.28622,0.0170239,0.00994907,1370,0.00433232,3.53091
2,1,Potentiostatic EIS,63.422,3.53085,-0.0251864,281838.25,0.525572,83.8992,0.0558571,-0.522596,1.40529,0.0189583,0.00996397,1370,0.00486094,3.53085
2,1,Potentiostatic EIS,63.9077,3.53083,-0.0252636,251189,0.47143,83.4513,0.0537651,-0.468354,1.41021,0.0211625,0.00997665,1340,0.00533464,3.53083
2,1,Potentiostatic EIS,64.3297,3.53078,-0.0267862,223872,0.422684,83.3346,0.0490612,-0.419827,1.54617,0.0235978,0.00997444,1360,0.0060749,3.53078
2,1,Potentiostatic EIS,64.7392,3.53074,-0.0278077,199526,0.377127,82.9719,0.0461438,-0.374293,1.60114,0.0262256,0.00989032,1355,0.00679109,3.53074
2,1,Potentiostatic EIS,65.1742,3.53065,-0.0298983,177828,0.339861,82.4178,0.044844,-0.336889,1.64011,0.0287371,0.00976617,1355,0.00761973,3.53065
2,1,Potentiostatic EIS,65.6782,3.53059,-0.0315841,158489,0.304083,81.7455,0.0436573,-0.300932,1.71949,0.0327517,0.00995923,1360,0.00858103,3.53059
2,1,Potentiostatic EIS,66.2177,3.53055,-0.0325308,141254,0.273625,81.5072,0.0404106,-0.270625,1.81353,0.0365075,0.00998938,1355,0.00959267,3.53055
2,1,Potentiostatic EIS,66.7976,3.53046,-0.0345797,125892,0.246105,80.7162,0.0397027,-0.242881,1.90732,0.0406063,0.00999342,1370,0.0108823,3.53046
2,1,Potentiostatic EIS,67.4207,3.5304,-0.036266,112202,0.220472,80.0964,0.0379191,-0.217186,1.95749,0.0452973,0.00998678,1360,0.012121,3.5304
2,1,Potentiostatic EIS,68.0442,3.53035,-0.0372347,99999.9,0.197602,79.4891,0.036047,-0.194286,1.8427,0.050355,0.00995025,1370,0.0137,3.53035
2,1,Potentiostatic EIS,69.0014,3.5303,-0.0376485,89125.1,0.178092,78.7705,0.0346815,-0.174683,1.90646,0.0560463,0.0099814,1365,0.0153156,3.5303
2,1,Potentiostatic EIS,70.1035,3.53093,-0.0192092,79432.8,0.159841,77.887,0.0335411,-0.156282,5.03302,0.0625087,0.00999141,1365,0.0171843,3.53093
2,1,Potentiostatic EIS,70.7491,3.53092,-0.0192153,70794.5,0.14357,76.9321,0.032462,-0.139852,3.89479,0.0698322,0.0100257,1370,0.0193518,3.53092
2,1,Potentiostatic EIS,70.9667,3.5309,-0.0196004,63095.7,0.129126,76.1854,0.0308327,-0.12539,4.22759,0.0777209,0.0100358,1290,0.0204451,3.5309
2,1,Potentiostatic EIS,71.1864,3.53092,-0.0193666,56234.1,0.116635,74.9645,0.0302571,-0.112642,4.5117,0.0863395,0.0100703,1150,0.0204502,3.53092
2,1,Potentiostatic EIS,71.4038,3.5309,-0.0197684,50118.7,0.104669,73.8137,0.0291778,-0.10052,4.79237,0.0959169,0.0100395,1025,0.0204515,3.5309
2,1,Potentiostatic EIS,71.6281,3.53091,-0.0193963,44668.3,0.094306,71.8968,0.0293036,-0.0896377,5.13846,0.106312,0.0100256,910,0.0203724,3.53091
2,1,Potentiostatic EIS,71.8489,3.53092,-0.0191198,39810.7,0.0852616,70.8705,0.0279406,-0.0805535,5.41521,0.118137,0.0100727,815,0.0204719,3.53092
2,1,Potentiostatic EIS,72.0698,3.53091,-0.019197,35481.3,0.0770093,69.1665,0.0273886,-0.0719743,5.71721,0.130593,0.010057,725,0.0204333,3.53091
2,1,Potentiostatic EIS,72.2943,3.5309,-0.0193809,31622.8,0.0701985,67.1966,0.0272068,-0.0647118,6.04573,0.144249,0.0101259,645,0.0203967,3.5309
2,1,Potentiostatic EIS,72.5148,3.5309,-0.0192701,28183.8,0.0633336,65.4649,0.0262994,-0.057615,6.15321,0.158486,0.0100375,575,0.0204018,3.5309
2,1,Potentiostatic EIS,72.7396,3.53123,-0.00971997,25118.8,0.0581505,63.0828,0.0263249,-0.0518506,6.4701,0.174411,0.0101421,510,0.0203035,3.53123
2,1,Potentiostatic EIS,72.9653,3.53126,-0.00896685,22387.2,0.0526916,60.8504,0.0256656,-0.0460182,6.52367,0.190763,0.0100516,455,0.0203241,3.53126
2,1,Potentiostatic EIS,73.1887,3.53127,-0.00848083,19952.6,0.048666,58.2208,0.0256298,-0.0413701,6.63595,0.208234,0.0101341,405,0.0202981,3.53127
2,1,Potentiostatic EIS,73.4084,3.53131,-0.00759939,17782.8,0.0447231,55.6027,0.0252653,-0.0369029,6.63612,0.225588,0.0100889,360,0.0202443,3.53131
2,1,Potentiostatic EIS,73.6291,3.53134,-0.00691685,15848.9,0.0412351,52.6892,0.0249942,-0.0327967,6.69297,0.243442,0.0100384,320,0.0201906,3.53134
2,1,Potentiostatic EIS,73.8679,3.53136,-0.00614077,14125.4,0.0386664,49.6015,0.0250597,-0.0294466,6.50428,0.257575,0.00995952,285,0.0201765,3.53136
2,1,Potentiostatic EIS,74.1019,3.5314,-0.00578705,12589.2,0.036003,46.74,0.0246732,-0.0262192,6.3047,0.278213,0.0100164,255,0.0202554,3.5314
2,1,Potentiostatic EIS,74.3223,3.5314,-0.00581103,11220.2,0.0339617,43.3106,0.0247121,-0.0232961,6.16511,0.295498,0.0100355,225,0.0200532,3.5314
2,1,Potentiostatic EIS,74.6712,3.53146,-0.00444623,9999.98,0.0322698,40.6695,0.024476,-0.0210301,2.80419,0.309848,0.00999873,307,0.0307001,3.53146
2,1,Potentiostatic EIS,74.9274,3.53148,-0.00425866,8912.5,0.030766,37.9033,0.0242759,-0.0189005,3.00228,0.331134,0.0101877,273,0.0306311,3.53148
2,1,Potentiostatic EIS,75.1419,3.5315,-0.00371535,7943.27,0.0293592,35.4329,0.0239217,-0.017021,3.36129,0.292215,0.00857921,244,0.0307178,3.5315
2,1,Potentiostatic EIS,75.3538,3.5315,-0.00376646,7079.45,0.0276692,32.75,0.0232709,-0.0149683,3.55806,0.332831,0.00920916,217,0.0306521,3.5315
2,1,Potentiostatic EIS,75.5651,3.53149,-0.00399185,6309.57,0.0263634,28.449,0.0231798,-0.0125589,3.6517,0.378057,0.00996688,193,0.0305885,3.53149
2,1,Potentiostatic EIS,75.7769,3.53152,-0.0034554,5623.41,0.0259056,24.6899,0.0235374,-0.0108209,3.60957,0.406599,0.0105332,172,0.0305864,3.53152
2,1,Potentiostatic EIS,75.9878,3.53153,-0.00297561,5011.87,0.0255915,21.6653,0.0237836,-0.00944795,3.56894,0.406609,0.0104057,153,0.0305276,3.53153
2,1,Potentiostatic EIS,76.199,3.53156,-0.00251882,4466.83,0.0253445,19.0025,0.0239634,-0.00825241,3.51495,0.406842,0.0103112,137,0.0306705,3.53156
2,1,Potentiostatic EIS,76.4103,3.53155,-0.00255511,3981.07,0.0251062,16.6725,0.0240507,-0.00720297,3.40555,0.406462,0.0102047,122,0.0306451,3.53155
2,1,Potentiostatic EIS,76.6214,3.53157,-0.00191495,3548.13,0.0249387,14.496,0.0241448,-0.00624245,3.30359,0.406026,0.0101258,108,0.0304386,3.53157
2,1,Potentiostatic EIS,76.789,3.53161,-0.00131762,3162.27,0.0248235,12.4992,0.0242351,-0.00537245,3.23377,0.376015,0.009334,97,0.0306742,3.53161
2,1,Potentiostatic EIS,76.957,3.53159,-0.00147522,2818.38,0.0247586,10.7058,0.0243276,-0.00459932,3.08901,0.422488,0.0104602,86,0.030514,3.53159
2,1,Potentiostatic EIS,77.1249,3.53159,-0.00157241,2511.88,0.0247218,9.01714,0.0244163,-0.00387465,2.94532,0.422594,0.0104473,77,0.0306543,3.53159
2,1,Potentiostatic EIS,77.2924,3.5316,-0.00143336,2238.72,0.0247119,7.48244,0.0245015,-0.00321804,2.81811,0.417719,0.0103226,68,0.0303745,3.5316
2,1,Potentiostatic EIS,77.4601,3.5316,-0.00144187,1995.26,0.0247336,6.14931,0.0245913,-0.00264946,2.55259,0.413361,0.0102239,61,0.0305725,3.5316
2,1,Potentiostatic EIS,77.6287,3.53162,-0.000606887,1778.28,0.0247899,4.88732,0.0246997,-0.00211201,2.69661,0.409277,0.0101459,54,0.0303664,3.53162
2,1,Potentiostatic EIS,77.7525,3.53162,-0.000924567,1584.89,0.0248489,3.69456,0.0247972,-0.0016012,2.63458,0.349138,0.00867568,48,0.030286,3.53162
2,1,Potentiostatic EIS,77.8762,3.53162,-0.000934766,1412.53,0.0249725,2.69141,0.024945,-0.00117263,2.42871,0.384934,0.00961276,43,0.0304417,3.53162
2,1,Potentiostatic EIS,78.0004,3.53162,-0.000851739,1258.92,0.0250555,1.78536,0.0250433,-0.000780614,2.3908,0.403749,0.0101161,38,0.0301845,3.53162
2,1,Potentiostatic EIS,78.1241,3.53163,-0.000633545,1122.02,0.0252132,0.883858,0.0252102,-0.000388929,2.34179,0.409501,0.0103248,34,0.0303026,3.53163
2,1,Potentiostatic EIS,78.2475,3.5316,-0.00139683,999.999,0.0253342,0.139969,0.0253341,-6.18893e-05,2.30527,0.404007,0.0102352,30,0.03,3.5316
2,1,Potentiostatic EIS,78.3706,3.53162,-0.000676103,891.25,0.0255096,-0.560515,0.0255084,0.000249552,2.26186,0.399003,0.0101784,27,0.0302945,3.53162
2,1,Potentiostatic EIS,78.4942,3.53163,-0.00076399,794.328,0.0256875,-1.18183,0.0256821,0.000529816,2.22419,0.394503,0.0101338,24,0.0302142,3.53163
2,1,Potentiostatic EIS,78.6185,3.53164,-0.000239603,707.945,0.0258687,-1.76287,0.0258565,0.0007958,2.19528,0.390332,0.0100974,21,0.0296633,3.53164
2,1,Potentiostatic EIS,78.7435,3.53165,-0.000205619,630.956,0.026064,-2.27578,0.0260434,0.00103499,2.14476,0.386382,0.0100706,19,0.030113,3.53165
2,1,Potentiostatic EIS,78.8696,3.53163,-0.00046625,562.34,0.0262606,-2.71024,0.0262312,0.00124173,2.09638,0.382438,0.0100431,17,0.0302308,3.53163
2,1,Potentiostatic EIS,78.9921,3.53166,0.000109543,501.185,0.0264724,-3.10784,0.0264335,0.00143521,2.04852,0.37944,0.0100447,15,0.029929,3.53166
2,1,Potentiostatic EIS,79.0712,3.53165,-5.51547e-05,446.683,0.0266887,-3.44054,0.0266406,0.00160166,2.03959,0.319396,0.00852424,13,0.0291034,3.53165
2,1,Potentiostatic EIS,79.1501,3.53165,-0.000320124,398.107,0.0269045,-3.74996,0.0268469,0.00175962,1.96992,0.327648,0.00881522,12,0.0301427,3.53165
2,1,Potentiostatic EIS,79.232,3.53164,-0.000339191,354.813,0.027144,-4.0487,0.0270763,0.00191648,1.87611,0.333946,0.00906463,10,0.0281839,3.53164
2,1,Potentiostatic EIS,79.3103,3.53164,-0.000368262,316.227,0.0273729,-4.24042,0.0272979,0.002024,1.80235,0.338067,0.00925386,9,0.0284606,3.53164
2,1,Potentiostatic EIS,79.3894,3.53164,-0.000339701,281.838,0.0276074,-4.4187,0.0275254,0.002127,1.71996,0.340828,0.00940938,8,0.0283851,3.53164
2,1,Potentiostatic EIS,79.471,3.53164,-0.00035054,251.188,0.0278534,-4.60181,0.0277636,0.00223469,1.63151,0.342361,0.00953592,8,0.0318487,3.53164
2,1,Potentiostatic EIS,79.5566,3.53165,-0.000261937,223.872,0.0280867,-4.65213,0.0279942,0.002278,1.5087,0.342603,0.00962261,8,0.0357347,3.53165
2,1,Potentiostatic EIS,79.645,3.53165,-1.43905e-05,199.526,0.0283173,-4.73722,0.0282206,0.00233861,1.4431,0.342339,0.00969414,8,0.0400951,3.53165
2,1,Potentiostatic EIS,79.7386,3.53165,0.000155416,177.828,0.0285657,-4.78331,0.0284662,0.00238202,1.32047,0.341555,0.00975674,8,0.0449874,3.53165
2,1,Potentiostatic EIS,79.8379,3.53165,6.12426e-06,158.489,0.0287956,-4.80884,0.0286943,0.00241398,1.20779,0.340155,0.00979497,8,0.0504767,3.53165
2,1,Potentiostatic EIS,79.9436,3.53165,7.44109e-06,141.253,0.0290357,-4.82695,0.0289327,0.00244325,1.14504,0.338408,0.00982589,8,0.0566359,3.53165
2,1,Potentiostatic EIS,80.056,3.53166,4.8977e-05,125.892,0.0292637,-4.81597,0.0291604,0.00245685,1.02058,0.336696,0.00985296,8,0.0635464,3.53166
2,1,Potentiostatic EIS,80.1769,3.53164,-0.00020551,112.201,0.0294851,-4.78178,0.0293825,0.00245791,0.945149,0.334637,0.00986682,8,0.0713003,3.53164
2,1,Potentiostatic EIS,80.3057,3.53164,-0.000303796,99.9997,0.0297091,-4.73314,0.0296078,0.00245145,0.841896,0.332584,0.00988078,8,0.0800003,3.53164
2,1,Potentiostatic EIS,80.4439,3.53163,-0.000278867,89.1248,0.0299257,-4.67317,0.0298262,0.0024381,0.743362,0.330395,0.00988729,8,0.0897617,3.53163
2,1,Potentiostatic EIS,80.5943,3.53164,-0.000518341,79.4325,0.0301387,-4.56243,0.0300432,0.00239739,0.697627,0.328232,0.00989248,8,0.100714,3.53164
2,1,Potentiostatic EIS,80.7589,3.53166,-0.00016496,70.7943,0.0303372,-4.4727,0.0302448,0.00236582,0.630074,0.326143,0.00989427,8,0.113003,3.53166
2,1,Potentiostatic EIS,80.9371,3.53165,1.77075e-05,63.0956,0.0305448,-4.37408,0.0304558,0.00232959,0.564786,0.324113,0.00989996,8,0.126792,3.53165
2,1,Potentiostatic EIS,81.1322,3.53165,0.000251069,56.2341,0.0307357,-4.28108,0.0306499,0.0022944,0.495851,0.314032,0.009652,8,0.142263,3.53165
2,1,Potentiostatic EIS,81.3468,3.53165,-8.07603e-05,50.1186,0.0309249,-4.13152,0.0308445,0.00222802,0.443625,0.313063,0.00968142,8,0.159621,3.53165
2,1,Potentiostatic EIS,81.5815,3.53164,-0.000374282,44.6682,0.0310985,-3.99659,0.0310229,0.00216747,0.399822,0.312099,0.0097058,8,0.179098,3.53164
2,1,Potentiostatic EIS,81.8405,3.53164,-0.000500323,39.8106,0.0312666,-3.8542,0.0311959,0.00210167,0.358628,0.311073,0.0097262,8,0.200952,3.53164
2,1,Potentiostatic EIS,82.1233,3.53166,0.00021319,35.4812,0.031431,-3.72777,0.0313645,0.00204352,0.323039,0.310247,0.00975138,8,0.225471,3.53166
2,1,Potentiostatic EIS,82.2669,3.53164,-0.000834666,31.6227,0.031577,-3.61152,0.0315142,0.00198907,0.307541,0.312952,0.00988212,2,0.0632458,3.53164
2,1,Potentiostatic EIS,82.4119,3.53163,-0.000920537,28.1838,0.0317338,-3.39611,0.0316781,0.00187987,0.310353,0.311954,0.0098995,2,0.0709628,3.53163
2,1,Potentiostatic EIS,82.5741,3.53164,-0.00101542,25.1188,0.0318709,-3.24637,0.0318197,0.00180483,0.291928,0.302507,0.00964102,2,0.0796217,3.53164
2,1,Potentiostatic EIS,82.755,3.53165,-0.000368172,22.3871,0.0320027,-3.09863,0.0319559,0.0017299,0.268596,0.303708,0.00971947,2,0.0893371,3.53165
2,1,Potentiostatic EIS,82.9553,3.53165,-0.000334095,19.9525,0.032124,-2.94863,0.0320814,0.00165247,0.288921,0.303444,0.00974784,2,0.100238,3.53165
2,1,Potentiostatic EIS,83.178,3.53164,-0.000762377,17.7828,0.0322332,-2.79862,0.0321947,0.00157381,0.248028,0.304036,0.00980006,2,0.112468,3.53164
2,1,Potentiostatic EIS,83.4253,3.53165,-0.000555759,15.8489,0.0323243,-2.6551,0.0322896,0.00149738,0.222521,0.303688,0.0098165,2,0.126192,3.53165
2,1,Potentiostatic EIS,83.701,3.53165,-0.000543118,14.1253,0.0324386,-2.55223,0.0324065,0.0014445,0.22099,0.303322,0.00983933,2,0.14159,3.53165
2,1,Potentiostatic EIS,84.0078,3.53165,-0.00052786,12.5892,0.0325322,-2.40521,0.0325035,0.00136526,0.218296,0.302999,0.00985721,2,0.158866,3.53165
2,1,Potentiostatic EIS,84.3501,3.53164,-0.000973238,11.2201,0.0325992,-2.3088,0.0325727,0.00131327,0.22947,0.303023,0.00987827,2,0.178251,3.53164
2,1,Potentiostatic EIS,84.7317,3.53164,-0.00102239,9.99996,0.0326795,-2.15846,0.0326563,0.00123082,0.194155,0.302604,0.00988892,2,0.200001,3.53164
2,1,Potentiostatic EIS,85.1577,3.53165,-0.000776035,8.91248,0.0327529,-2.07966,0.0327313,0.00118857,0.254125,0.302004,0.00989152,2,0.224404,3.53165
2,1,Potentiostatic EIS,85.6333,3.53164,-0.000925881,7.94325,0.0328015,-1.94337,0.0327827,0.00111235,0.195966,0.302108,0.00990958,2,0.251786,3.53164
2,1,Potentiostatic EIS,86.1653,3.53165,-0.000750153,7.07944,0.0328669,-1.88411,0.0328491,0.0010806,0.216967,0.301764,0.00991804,2,0.282508,3.53165
2,1,Potentiostatic EIS,86.7594,3.53165,-0.000868281,6.30955,0.0329351,-1.78794,0.0329191,0.00102759,0.19757,0.301464,0.00992875,2,0.31698,3.53165
2,1,Potentiostatic EIS,87.4238,3.53165,-0.0010766,5.62339,0.0329779,-1.7286,0.0329629,0.000994786,0.208634,0.301039,0.00992762,2,0.355657,3.53165
2,1,Potentiostatic EIS,88.1671,3.53165,-0.000942445,5.01185,0.033035,-1.65059,0.0330213,0.00095155,0.198453,0.300746,0.00993516,2,0.399054,3.53165
2,1,Potentiostatic EIS,88.9996,3.53166,-0.000915775,4.46682,0.0330732,-1.61748,0.03306,0.000933545,0.186312,0.30034,0.00993323,2,0.447745,3.53166
2,1,Potentiostatic EIS,89.9312,3.53165,-0.00115068,3.98106,0.0331223,-1.54515,0.0331103,0.000893132,0.215828,0.300039,0.00993798,2,0.502378,3.53165
2,1,Potentiostatic EIS,90.9715,3.53166,-0.00124535,3.54812,0.03316,-1.50943,0.0331485,0.000873485,0.192042,0.299732,0.00993912,2,0.563679,3.53166
2,1,Potentiostatic EIS,92.1365,3.53165,-0.00117549,3.16227,0.0332164,-1.47846,0.0332053,0.000857018,0.186139,0.299249,0.00993997,2,0.632458,3.53165
2,1,Potentiostatic EIS,93.4416,3.53165,-0.000553307,2.81837,0.0332406,-1.44037,0.0332301,0.000835556,0.188983,0.298951,0.00993729,2,0.70963,3.53165
2,1,Potentiostatic EIS,94.904,3.53166,-0.000804924,2.51188,0.0332908,-1.43003,0.0332805,0.000830809,0.190592,0.298717,0.00994454,2,0.796217,3.53166
2,1,Potentiostatic EIS,96.5443,3.53165,-0.00141875,2.23872,0.0333233,-1.41289,0.0333132,0.000821658,0.196189,0.298318,0.00994095,2,0.893369,3.53165
2,1,Potentiostatic EIS,98.3817,3.53166,-0.00121094,1.99526,0.0333681,-1.42634,0.0333578,0.000830589,0.226109,0.298065,0.00994587,2,1.00238,3.53166
2,1,Potentiostatic EIS,100.442,3.53165,-0.00136942,1.77827,0.0333977,-1.4157,0.0333875,0.000825129,0.211655,0.297777,0.00994507,2,1.12469,3.53165
2,1,Potentiostatic EIS,102.752,3.53166,-0.00152198,1.58489,0.0334506,-1.40902,0.0334405,0.000822536,0.197424,0.297369,0.00994717,2,1.26192,3.53166
2,1,Potentiostatic EIS,105.341,3.53166,-0.00115811,1.41253,0.0335024,-1.43625,0.0334919,0.000839727,0.18823,0.297019,0.00995084,2,1.4159,3.53166
2,1,Potentiostatic EIS,108.245,3.53165,-0.0014065,1.25892,0.0335337,-1.46742,0.0335227,0.000858747,0.175596,0.296766,0.00995167,2,1.58866,3.53165
2,1,Potentiostatic EIS,111.501,3.53166,-0.00181884,1.12202,0.0335691,-1.48391,0.0335579,0.000869315,0.199861,0.296266,0.00994535,2,1.78251,3.53166
2,1,Potentiostatic EIS,115.153,3.53166,-0.00154299,0.999995,0.0336107,-1.54461,0.0335985,0.000905989,0.209039,0.295947,0.009947,2,2.00001,3.53166
2,1,Potentiostatic EIS,119.248,3.53166,-0.00145094,0.891248,0.0336486,-1.56415,0.0336361,0.000918478,0.18941,0.295555,0.00994501,2,2.24404,3.53166
2,1,Potentiostatic EIS,123.843,3.53165,-0.00167721,0.794324,0.0337061,-1.62502,0.0336926,0.000955841,0.17938,0.295044,0.00994481,2,2.51786,3.53165
2,1,Potentiostatic EIS,128.997,3.53166,-0.00115459,0.707944,0.0337349,-1.66537,0.0337206,0.000980406,0.20772,0.294917,0.009949,2,2.82508,3.53166
2,1,Potentiostatic EIS,134.776,3.53166,-0.00124695,0.630955,0.0337754,-1.75238,0.0337596,0.00103285,0.16292,0.2946,0.00995021,2,3.1698,3.53166
2,1,Potentiostatic EIS,141.261,3.53165,-0.0014797,0.562339,0.0338442,-1.81631,0.0338272,0.0010727,0.220765,0.293876,0.00994598,2,3.55657,3.53165
2,1,Potentiostatic EIS,148.535,3.53164,-0.0012321,0.501186,0.0338826,-1.87614,0.0338644,0.00110928,0.15294,0.293442,0.00994259,2,3.99054,3.53164
2,1,Potentiostatic EIS,156.695,3.53166,-0.00122963,0.446681,0.0339557,-1.9772,0.0339355,0.00117153,0.196754,0.293069,0.00995138,2,4.47747,3.53166
2,1,Potentiostatic EIS,165.851,3.53165,-0.00127504,0.398106,0.0340185,-2.0769,0.0339961,0.00123286,0.208897,0.292469,0.00994936,2,5.02379,3.53165
2,1,Potentiostatic EIS,176.12,3.53165,-0.000976128,0.354812,0.0341182,-2.16866,0.0340937,0.00129107,0.203549,0.291492,0.00994519,2,5.63679,3.53165
2,1,Potentiostatic EIS,187.636,3.53165,-0.00116697,0.316226,0.0341835,-2.30181,0.0341559,0.00137292,0.187053,0.29102,0.00994806,2,6.32458,3.53165
2,1,Potentiostatic EIS,200.557,3.53166,-0.000807268,0.281837,0.0342243,-2.41124,0.034194,0.00143987,0.227503,0.290889,0.00995547,2,7.09631,3.53166
2,1,Potentiostatic EIS,215.052,3.53166,-0.000592959,0.251188,0.0342556,-2.56039,0.0342214,0.00153028,0.220028,0.290496,0.00995111,2,7.96218,3.53166
2,1,Potentiostatic EIS,231.316,3.53166,-0.00110179,0.223871,0.0343217,-2.69661,0.0342837,0.00161474,0.193554,0.289778,0.00994569,2,8.9337,3.53166
2,1,Potentiostatic EIS,249.56,3.53166,-0.000522351,0.199525,0.0343911,-2.85969,0.0343482,0.00171578,0.192084,0.289448,0.00995439,2,10.0238,3.53166
2,1,Potentiostatic EIS,270.027,3.53166,-0.000790122,0.177827,0.0344568,-3.02793,0.0344087,0.0018201,0.181456,0.288883,0.00995399,2,11.2469,3.53166
2,1,Potentiostatic EIS,292.998,3.53166,-0.000924569,0.158489,0.0345371,-3.22886,0.0344823,0.00194528,0.188443,0.288059,0.00994871,2,12.6192,3.53166
2,1,Potentiostatic EIS,318.763,3.53165,-0.000520054,0.141253,0.0350169,-3.37756,0.0349561,0.00206304,0.214018,0.284157,0.0099496,2,14.159,3.53165
2,1,Potentiostatic EIS,347.676,3.53166,-0.000671154,0.125892,0.0354094,-3.5593,0.0353411,0.00219827,0.198411,0.281253,0.00995898,2,15.8867,3.53166
2,1,Potentiostatic EIS,380.108,3.53164,-0.000878497,0.112201,0.0354563,-3.75901,0.03538,0.00232452,0.198597,0.280613,0.00994948,2,17.8251,3.53164
2,1,Potentiostatic EIS,416.5,3.53165,-0.000114206,0.0999997,0.0355409,-3.99744,0.0354545,0.00247763,0.181479,0.279989,0.00995104,2,20.0001,3.53165
2,1,Potentiostatic EIS,457.328,3.53165,-0.00096071,0.0891246,0.0356554,-4.29682,0.0355552,0.00267142,0.176525,0.279135,0.00995265,2,22.4405,3.53165
2,1,Potentiostatic EIS,503.129,3.53166,-0.000646488,0.0794325,0.0357673,-4.57762,0.0356532,0.00285457,0.210557,0.278249,0.00995221,2,25.1786,3.53166
2,1,Potentiostatic EIS,554.528,3.53165,-0.000247004,0.0707942,0.035902,-4.87119,0.0357723,0.00304865,0.155375,0.277243,0.00995358,2,28.2509,3.53165
2,1,Potentiostatic EIS,612.185,3.53166,-0.000783269,0.0630955,0.0360584,-5.2054,0.0359097,0.00327145,0.187435,0.276087,0.00995524,2,31.698,3.53166
2,1,Potentiostatic EIS,676.874,3.53165,-0.000580813,0.0562339,0.0362022,-5.55323,0.0360323,0.0035033,0.182277,0.274846,0.00994999,2,35.5657,3.53165
2,1,Potentiostatic EIS,749.456,3.53166,0.000104543,0.0501185,0.0364234,-5.98785,0.0362247,0.0037996,0.332328,0.273364,0.00995689,2,39.9054,3.53166
2,1,Potentiostatic EIS,822.208,3.53168,-0.000309158,0.05,0.0365948,-5.93372,0.0363987,0.00378309,0.183984,0.272069,0.00995629,2,40,3.53168