File: Data/P190/P190_04/EIS_08_P190_04_4/2_EIS_08_P190_04_4 20231019 141243.csv
Step number,Repeats,Step name,Elapsed Time  (s),DC Working Electrode (V),DC Current (A),Frequency (Hz),|Z| (Ohms),Phase (deg),Z' (Ohms),-Z" (Ohms),THD (%),Amplitude (A),Amplitude (V),No of Cycles,Duration of Each Frequency (s),IR Compensated DC Working Electrode (V)
2,1,Potentiostatic EIS,60.3015,3.48749,-0.0113981,1000000,3.08246,88.157,0.0991357,-3.08086,0.993815,0.00322903,0.00995352,1430,0.00143,3.48749
2,1,Potentiostatic EIS,60.5321,3.48744,-0.0121492,891251,2.75617,87.6991,0.110651,-2.75395,0.919499,0.00356807,0.00983437,1310,0.00146984,3.48744
2,1,Potentiostatic EIS,60.761,3.48744,-0.0123446,794328,2.46944,87.5909,0.103801,-2.46726,1.19122,0.00400892,0.00989986,1445,0.00181915,3.48744
2,1,Potentiostatic EIS,60.991,3.48742,-0.0128384,707946,2.21197,87.7119,0.0883104,-2.2102,0.992325,0.00447055,0.00988885,1340,0.0018928,3.48742
2,1,Potentiostatic EIS,61.2271,3.48738,-0.0137698,630957.25,1.97676,87.175,0.0974256,-1.97436,0.991809,0.00494133,0.00976801,1355,0.00214753,3.48738
2,1,Potentiostatic EIS,61.4899,3.48736,-0.014325,562341.25,1.76446,87.149,0.0877608,-1.76227,0.947048,0.00565606,0.00997987,1360,0.00241846,3.48736
2,1,Potentiostatic EIS,61.7618,3.48736,-0.0142413,501187,1.57826,87.2025,0.0770301,-1.57638,1.0886,0.00630875,0.00995683,1385,0.00276344,3.48736
2,1,Potentiostatic EIS,62.0328,3.48734,-0.0144974,446684,1.40787,86.6819,0.0814861,-1.40551,0.971589,0.00706198,0.00994238,1360,0.00304466,3.48734
2,1,Potentiostatic EIS,62.3161,3.4873,-0.0154468,398107,1.26266,86.3093,0.0812784,-1.26004,1.01421,0.00787952,0.00994911,1400,0.00351664,3.4873
2,1,Potentiostatic EIS,62.6047,3.48728,-0.0161576,354813,1.1263,86.1364,0.075891,-1.12374,1.01357,0.00884441,0.00996157,1365,0.00384709,3.48728
2,1,Potentiostatic EIS,62.9109,3.48725,-0.0165365,316228,1.00711,85.9485,0.0711562,-1.00459,1.1243,0.00987335,0.00994356,1370,0.00433232,3.48725
2,1,Potentiostatic EIS,63.3697,3.48721,-0.0175078,281838.25,0.902977,85.4149,0.0721843,-0.900088,1.15261,0.0110352,0.00996459,1370,0.00486094,3.48721
2,1,Potentiostatic EIS,63.7052,3.4872,-0.0176594,251189,0.808545,85.0937,0.0691525,-0.805582,1.10235,0.0122671,0.00991859,1340,0.00533464,3.4872
2,1,Potentiostatic EIS,64.0595,3.48718,-0.0182708,223872,0.723176,85.0589,0.0622882,-0.720489,1.19701,0.0135057,0.00976714,1360,0.0060749,3.48718
2,1,Potentiostatic EIS,64.4731,3.48715,-0.0192331,199526,0.64569,84.8633,0.0578101,-0.643097,1.23067,0.0153562,0.0099154,1355,0.00679109,3.48715
2,1,Potentiostatic EIS,64.9089,3.48713,-0.0198848,177828,0.580763,84.4147,0.0565248,-0.578006,1.35672,0.0171504,0.00996033,1355,0.00761973,3.48713
2,1,Potentiostatic EIS,65.3714,3.48708,-0.0209812,158489,0.520761,83.9969,0.0544624,-0.517905,1.36924,0.0191449,0.00996994,1360,0.00858103,3.48708
2,1,Potentiostatic EIS,66.0753,3.48706,-0.0209457,141254,0.46674,83.8878,0.0496967,-0.464087,1.31963,0.0213707,0.00997456,1355,0.00959267,3.48706
2,1,Potentiostatic EIS,66.6119,3.487,-0.0226678,125892,0.419324,83.2898,0.0489967,-0.416452,1.43668,0.0237654,0.00996545,1370,0.0108823,3.487
2,1,Potentiostatic EIS,67.187,3.48698,-0.0232089,112202,0.3755,82.6992,0.0477177,-0.372455,1.44969,0.0265886,0.00998403,1360,0.012121,3.48698
2,1,Potentiostatic EIS,67.7577,3.48694,-0.0238746,99999.9,0.335491,82.3378,0.0447319,-0.332496,1.64916,0.0296518,0.00994793,1370,0.0137,3.48694
2,1,Potentiostatic EIS,68.3747,3.48688,-0.0255114,89125.1,0.301504,81.9523,0.04221,-0.298535,1.6353,0.033179,0.0100036,1365,0.0153156,3.48688
2,1,Potentiostatic EIS,69.0399,3.48686,-0.0262153,79432.8,0.271086,81.3448,0.0407953,-0.267999,2.27859,0.0368066,0.00997775,1365,0.0171843,3.48686
2,1,Potentiostatic EIS,69.7666,3.48682,-0.0266803,70794.5,0.24293,80.6669,0.0393968,-0.239714,1.87016,0.0410743,0.00997823,1370,0.0193518,3.48682
2,1,Potentiostatic EIS,70.0144,3.48677,-0.028349,63095.7,0.217773,80.1033,0.037429,-0.214532,1.63262,0.0459031,0.00999653,1290,0.0204451,3.48677
2,1,Potentiostatic EIS,70.2666,3.48675,-0.0288924,56234.1,0.196163,79.3436,0.0362741,-0.19278,1.81657,0.0506729,0.00994018,1150,0.0204502,3.48675
2,1,Potentiostatic EIS,70.5194,3.4867,-0.0296004,50118.7,0.177043,79.0496,0.0336309,-0.173819,1.92111,0.0557806,0.00987638,1025,0.0204515,3.4867
2,1,Potentiostatic EIS,70.8684,3.48672,-0.0290344,44668.3,0.157974,77.4819,0.0342406,-0.154219,1.85377,0.0619198,0.00978175,910,0.0203724,3.48672
2,1,Potentiostatic EIS,71.2267,3.48713,-0.0165299,39810.7,0.142347,76.7408,0.0326482,-0.138553,3.70076,0.0683969,0.00973572,815,0.0204719,3.48713
2,1,Potentiostatic EIS,71.449,3.48724,-0.0136804,35481.3,0.127924,75.7651,0.0314562,-0.123996,4.59862,0.0780744,0.00998744,725,0.0204333,3.48724
2,1,Potentiostatic EIS,71.6768,3.48722,-0.0134714,31622.8,0.115973,74.3727,0.0312409,-0.111686,5.00686,0.0866201,0.0100457,645,0.0203967,3.48722
2,1,Potentiostatic EIS,71.8975,3.48724,-0.0134334,28183.8,0.103782,73.4631,0.0295399,-0.0994896,5.18813,0.0960534,0.00996865,575,0.0204018,3.48724
2,1,Potentiostatic EIS,72.1181,3.48756,-0.00334,25118.8,0.0945047,71.9231,0.0293242,-0.0898401,5.7171,0.106411,0.0100564,510,0.0203035,3.48756
2,1,Potentiostatic EIS,72.339,3.48755,-0.00312785,22387.2,0.0847518,70.4339,0.0283828,-0.0798578,5.94514,0.117684,0.00997389,455,0.0203241,3.48755
2,1,Potentiostatic EIS,72.5611,3.48758,-0.00270264,19952.6,0.0773391,68.6581,0.0281462,-0.0720356,6.25328,0.130227,0.0100718,405,0.0202981,3.48758
2,1,Potentiostatic EIS,72.7861,3.48762,-0.0019858,17782.8,0.0700733,66.9766,0.0274062,-0.0644916,6.5876,0.142885,0.0100124,360,0.0202443,3.48762
2,1,Potentiostatic EIS,72.9916,3.48762,-0.00171166,15848.9,0.063582,65.0859,0.0267845,-0.057665,6.72806,0.152761,0.00971228,320,0.0201906,3.48762
2,1,Potentiostatic EIS,73.1926,3.4876,-0.00167043,14125.4,0.0581908,62.8038,0.0265955,-0.0517576,6.7488,0.168222,0.00978928,285,0.0201765,3.4876
2,1,Potentiostatic EIS,73.3993,3.48762,-0.00139822,12589.2,0.0532019,60.6121,0.0261072,-0.0463558,6.71707,0.184997,0.00984257,255,0.0202554,3.48762
2,1,Potentiostatic EIS,73.6003,3.48763,-0.00124099,11220.2,0.0489512,58.0522,0.0259024,-0.0415366,6.728,0.200626,0.00982091,225,0.0200532,3.48763
2,1,Potentiostatic EIS,73.861,3.48784,-0.00135276,9999.98,0.0452158,55.9413,0.0253227,-0.0374597,3.27904,0.222185,0.0100463,307,0.0307001,3.48784
2,1,Potentiostatic EIS,74.0705,3.48784,-0.00148117,8912.5,0.0418955,53.5068,0.0249164,-0.033681,3.65182,0.242314,0.0101519,273,0.0306311,3.48784
2,1,Potentiostatic EIS,74.2849,3.48785,-0.0014441,7943.27,0.0389789,51.2587,0.0243932,-0.0304028,4.00061,0.272416,0.0106185,244,0.0307178,3.48785
2,1,Potentiostatic EIS,74.4966,3.48785,-0.00128707,7079.45,0.0358065,48.9023,0.0235373,-0.0269834,4.34891,0.294965,0.0105617,217,0.0306521,3.48785
2,1,Potentiostatic EIS,74.707,3.48787,-0.000755389,6309.57,0.0330566,45.0353,0.0233601,-0.023389,4.60645,0.317304,0.010489,193,0.0305885,3.48787
2,1,Potentiostatic EIS,74.9193,3.48788,-0.000448896,5623.41,0.0312566,41.2333,0.023506,-0.0206021,4.7055,0.332928,0.0104062,172,0.0305864,3.48788
2,1,Potentiostatic EIS,75.1339,3.4879,-0.000347446,5011.87,0.0298564,37.7282,0.0236141,-0.0182696,4.69458,0.345682,0.0103208,153,0.0305276,3.4879
2,1,Potentiostatic EIS,75.3451,3.4879,-0.000156777,4466.83,0.0286854,34.4222,0.0236624,-0.0162155,4.6342,0.357863,0.0102655,137,0.0306705,3.4879
2,1,Potentiostatic EIS,75.5561,3.4879,-0.000268826,3981.07,0.0276685,31.3518,0.0236286,-0.0143957,4.52501,0.36843,0.0101939,122,0.0306451,3.4879
2,1,Potentiostatic EIS,75.7673,3.48791,0.000262568,3548.13,0.0268154,28.316,0.0236068,-0.0127195,4.3789,0.377095,0.010112,108,0.0304386,3.48791
2,1,Potentiostatic EIS,75.9351,3.48793,0.00079142,3162.27,0.0261361,25.4352,0.0236028,-0.0112252,4.26124,0.356176,0.00930904,97,0.0306742,3.48793
2,1,Potentiostatic EIS,76.1023,3.48793,0.000414442,2818.38,0.0255836,22.7394,0.023595,-0.00988907,3.96807,0.400498,0.0102462,86,0.030514,3.48793
2,1,Potentiostatic EIS,76.2703,3.48793,0.000725311,2511.88,0.0251518,20.1441,0.0236133,-0.00866186,3.68619,0.416087,0.0104654,77,0.0306543,3.48793
2,1,Potentiostatic EIS,76.4373,3.48793,0.00047169,2238.72,0.0248047,17.7104,0.0236291,-0.00754572,3.53425,0.417163,0.0103476,68,0.0303745,3.48793
2,1,Potentiostatic EIS,76.6041,3.48794,0.0010031,1995.26,0.0245383,15.4512,0.0236514,-0.00653743,3.32027,0.418448,0.010268,61,0.0305725,3.48794
2,1,Potentiostatic EIS,76.7707,3.48796,0.00132337,1778.28,0.0243316,13.3714,0.0236721,-0.00562699,3.23499,0.418639,0.0101862,54,0.0303664,3.48796
2,1,Potentiostatic EIS,76.9376,3.48797,0.00173497,1584.89,0.0242324,11.3945,0.0237548,-0.00478745,3.00369,0.418137,0.0101325,48,0.030286,3.48797
2,1,Potentiostatic EIS,77.0611,3.48795,0.00118923,1412.53,0.0241479,9.6637,0.0238052,-0.00405358,2.94006,0.370178,0.00893903,43,0.0304417,3.48795
2,1,Potentiostatic EIS,77.185,3.48796,0.00113362,1258.92,0.0241285,8.01061,0.023893,-0.00336246,2.81093,0.390143,0.00941357,38,0.0301845,3.48796
2,1,Potentiostatic EIS,77.3096,3.48797,0.0014446,1122.02,0.0241226,6.5572,0.0239648,-0.00275468,2.5305,0.429338,0.0103567,34,0.0303026,3.48797
2,1,Potentiostatic EIS,77.4333,3.48796,0.00120836,999.999,0.0241727,5.18899,0.0240736,-0.00218621,2.37661,0.425228,0.0102789,30,0.03,3.48796
2,1,Potentiostatic EIS,77.5557,3.48796,0.00141143,891.25,0.0242399,3.96444,0.0241819,-0.00167588,2.32174,0.421242,0.0102109,27,0.0302945,3.48796
2,1,Potentiostatic EIS,77.679,3.48798,0.0018911,794.328,0.024364,2.86807,0.0243335,-0.00121909,2.15779,0.416969,0.010159,24,0.0302142,3.48798
2,1,Potentiostatic EIS,77.8032,3.48799,0.00244207,707.945,0.0244666,1.83174,0.0244541,-0.000782061,2.14496,0.413291,0.0101118,21,0.0296633,3.48799
2,1,Potentiostatic EIS,77.9262,3.48799,0.00216371,630.956,0.0246169,0.929655,0.0246137,-0.000399405,2.07202,0.410026,0.0100936,19,0.030113,3.48799
2,1,Potentiostatic EIS,78.0502,3.48797,0.00158422,562.34,0.0247663,0.108681,0.0247662,-4.69777e-05,2.00467,0.406449,0.0100662,17,0.0302308,3.48797
2,1,Potentiostatic EIS,78.1741,3.48799,0.00198185,501.185,0.0249471,-0.640209,0.0249455,0.000278747,1.94858,0.402667,0.0100454,15,0.029929,3.48799
2,1,Potentiostatic EIS,78.2966,3.48797,0.00140504,446.683,0.0251345,-1.31805,0.0251278,0.00057815,1.88211,0.398749,0.0100223,13,0.0291034,3.48797
2,1,Potentiostatic EIS,78.3764,3.48799,0.00203964,398.107,0.0253314,-1.91755,0.0253173,0.000847625,1.88557,0.340051,0.00861398,12,0.0301427,3.48799
2,1,Potentiostatic EIS,78.4549,3.48799,0.00189908,354.813,0.0255163,-2.39826,0.0254939,0.00106774,1.83935,0.348169,0.00888399,10,0.0281839,3.48799
2,1,Potentiostatic EIS,78.5336,3.48799,0.00200633,316.227,0.0257509,-2.85435,0.025719,0.00128232,1.73723,0.35412,0.0091189,9,0.0284606,3.48799
2,1,Potentiostatic EIS,78.6125,3.48799,0.00216386,281.838,0.0259934,-3.27454,0.025951,0.00148475,1.68116,0.357985,0.00930526,8,0.0283851,3.48799
2,1,Potentiostatic EIS,78.6943,3.48798,0.00216699,251.188,0.0262104,-3.60735,0.0261585,0.00164912,1.57259,0.360427,0.00944695,8,0.0318487,3.48798
2,1,Potentiostatic EIS,78.7786,3.48798,0.0020091,223.872,0.0264405,-3.91795,0.0263787,0.00180662,1.49034,0.361446,0.0095568,8,0.0357347,3.48798
2,1,Potentiostatic EIS,78.867,3.48799,0.00220198,199.526,0.0266868,-4.10695,0.0266183,0.00191127,1.42443,0.361582,0.00964948,8,0.0400951,3.48799
2,1,Potentiostatic EIS,78.9607,3.48799,0.00234617,177.828,0.0269306,-4.30518,0.0268546,0.00202165,1.3181,0.360895,0.00971913,8,0.0449874,3.48799
2,1,Potentiostatic EIS,79.0592,3.48799,0.00231335,158.489,0.0271534,-4.43414,0.0270721,0.00209931,1.22261,0.35955,0.00976301,8,0.0504767,3.48799
2,1,Potentiostatic EIS,79.1652,3.48798,0.00196791,141.253,0.0274036,-4.58638,0.0273158,0.00219124,1.1182,0.357882,0.00980725,8,0.0566359,3.48798
2,1,Potentiostatic EIS,79.2785,3.48798,0.00195964,125.892,0.0276347,-4.64959,0.0275437,0.00224011,1.06754,0.355811,0.00983271,8,0.0635464,3.48798
2,1,Potentiostatic EIS,79.3988,3.48798,0.00197706,112.201,0.0278597,-4.68393,0.0277667,0.002275,0.96681,0.353703,0.00985406,8,0.0713003,3.48798
2,1,Potentiostatic EIS,79.5274,3.48798,0.00209215,99.9997,0.0280953,-4.73204,0.0279995,0.00231774,0.851246,0.351242,0.00986824,8,0.0800003,3.48798
2,1,Potentiostatic EIS,79.6666,3.48799,0.00246458,89.1248,0.0283073,-4.73866,0.0282106,0.0023385,0.777446,0.348821,0.00987421,8,0.0897617,3.48799
2,1,Potentiostatic EIS,79.8179,3.48799,0.00212022,79.4325,0.0285363,-4.69562,0.0284405,0.00233605,0.707839,0.346375,0.00988427,8,0.100714,3.48799
2,1,Potentiostatic EIS,79.9817,3.48799,0.00224178,70.7943,0.0287541,-4.66492,0.0286589,0.00233852,0.660154,0.343976,0.00989074,8,0.113003,3.48799
2,1,Potentiostatic EIS,80.162,3.48799,0.0022573,63.0956,0.0289775,-4.59281,0.0288845,0.00232034,0.586705,0.34158,0.00989815,8,0.126792,3.48799
2,1,Potentiostatic EIS,80.3588,3.48798,0.0025611,56.2341,0.02917,-4.55616,0.0290778,0.00231715,0.516141,0.33061,0.00964389,8,0.142263,3.48798
2,1,Potentiostatic EIS,80.574,3.48799,0.00230051,50.1186,0.0293699,-4.45387,0.0292812,0.00228076,0.468255,0.329324,0.00967221,8,0.159621,3.48799
2,1,Potentiostatic EIS,80.8102,3.488,0.00231312,44.6682,0.0295597,-4.3581,0.0294742,0.00224624,0.417579,0.328088,0.00969817,8,0.179098,3.488
2,1,Potentiostatic EIS,81.0684,3.48798,0.00194065,39.8106,0.0297544,-4.25756,0.0296723,0.00220897,0.374512,0.326708,0.009721,8,0.200952,3.48798
2,1,Potentiostatic EIS,81.3523,3.48799,0.00235177,35.4812,0.0299263,-4.15774,0.0298476,0.00216974,0.342036,0.32565,0.00974552,8,0.225471,3.48799
2,1,Potentiostatic EIS,81.4961,3.48799,0.00145607,31.6227,0.0301054,-4.03116,0.0300309,0.00211638,0.311841,0.328204,0.00988077,2,0.0632458,3.48799
2,1,Potentiostatic EIS,81.6417,3.48799,0.00166095,28.1838,0.0302742,-3.87662,0.030205,0.00204679,0.305546,0.326835,0.00989468,2,0.0709628,3.48799
2,1,Potentiostatic EIS,81.8044,3.48799,0.00192996,25.1188,0.0304296,-3.77078,0.0303637,0.0020012,0.283698,0.316435,0.00962885,2,0.0796217,3.48799
2,1,Potentiostatic EIS,81.9856,3.488,0.0021938,22.3871,0.0305931,-3.61751,0.0305322,0.00193029,0.263093,0.316534,0.00968388,2,0.0893371,3.488
2,1,Potentiostatic EIS,82.1859,3.488,0.0016941,19.9525,0.0307351,-3.50243,0.0306777,0.00187764,0.251363,0.316753,0.00973542,2,0.100238,3.488
2,1,Potentiostatic EIS,82.4084,3.48799,0.00146847,17.7828,0.0308644,-3.36492,0.0308112,0.00181159,0.723189,0.316537,0.00976965,2,0.112468,3.48799
2,1,Potentiostatic EIS,82.6555,3.48799,0.000685547,15.8489,0.0310023,-3.20762,0.0309537,0.00173471,1.96208,0.316398,0.00980903,2,0.126192,3.48799
2,1,Potentiostatic EIS,82.931,3.488,0.00112302,14.1253,0.0311118,-3.09265,0.0310665,0.0016785,0.90435,0.316095,0.00983424,2,0.14159,3.488
2,1,Potentiostatic EIS,83.2376,3.488,0.000959518,12.5892,0.0312239,-2.95236,0.0311824,0.0016082,0.773644,0.31567,0.00985642,2,0.158866,3.488
2,1,Potentiostatic EIS,83.5799,3.48799,0.000993142,11.2201,0.0313328,-2.83449,0.0312945,0.00154944,0.235552,0.315461,0.00988428,2,0.178251,3.48799
2,1,Potentiostatic EIS,83.9617,3.48799,0.00101113,9.99996,0.0314323,-2.71112,0.0313971,0.00148676,0.221238,0.314346,0.00988062,2,0.200001,3.48799
2,1,Potentiostatic EIS,84.3877,3.48799,0.000945606,8.91248,0.0315308,-2.5965,0.0314984,0.00142841,0.20256,0.313966,0.00989963,2,0.224404,3.48799
2,1,Potentiostatic EIS,84.8637,3.48799,0.00199622,7.94325,0.0316037,-2.48272,0.031574,0.00136901,0.212136,0.313377,0.00990385,2,0.251786,3.48799
2,1,Potentiostatic EIS,85.3953,3.48799,0.00134001,7.07944,0.0317018,-2.38761,0.0316743,0.00132068,0.236662,0.312988,0.00992228,2,0.282508,3.48799
2,1,Potentiostatic EIS,85.9903,3.488,0.00131081,6.30955,0.0317758,-2.30655,0.0317501,0.00127885,0.219162,0.311947,0.00991235,2,0.31698,3.488
2,1,Potentiostatic EIS,86.6547,3.488,0.00111805,5.62339,0.0318466,-2.21632,0.0318228,0.00123159,0.227232,0.311842,0.00993112,2,0.355657,3.488
2,1,Potentiostatic EIS,87.3987,3.488,0.00115366,5.01185,0.0319283,-2.16126,0.0319056,0.00120409,0.223692,0.310764,0.00992216,2,0.399054,3.488
2,1,Potentiostatic EIS,88.2308,3.488,0.00110935,4.46682,0.0320015,-2.10455,0.03198,0.00117519,0.212575,0.310227,0.00992776,2,0.447745,3.488
2,1,Potentiostatic EIS,89.1623,3.48799,0.000812048,3.98106,0.0320619,-2.03652,0.0320416,0.00113937,0.224837,0.309744,0.00993097,2,0.502378,3.48799
2,1,Potentiostatic EIS,90.2049,3.48799,0.000778651,3.54812,0.0321157,-1.97181,0.0320967,0.00110503,0.185497,0.309193,0.00992992,2,0.563679,3.48799
2,1,Potentiostatic EIS,91.37,3.48799,0.000579598,3.16227,0.0321784,-1.96362,0.0321595,0.00110259,0.211916,0.308836,0.00993782,2,0.632458,3.48799
2,1,Potentiostatic EIS,92.6753,3.488,0.000661147,2.81837,0.0322237,-1.89595,0.0322061,0.00106611,0.184526,0.308297,0.00993446,2,0.70963,3.488
2,1,Potentiostatic EIS,94.1374,3.48799,0.000600648,2.51188,0.0322813,-1.86565,0.0322641,0.00105095,0.22345,0.308018,0.0099432,2,0.796217,3.48799
2,1,Potentiostatic EIS,95.7774,3.48799,0.000671633,2.23872,0.0323336,-1.85164,0.0323167,0.00104475,0.214337,0.307313,0.00993652,2,0.893369,3.48799
2,1,Potentiostatic EIS,97.6155,3.48799,0.000281155,1.99526,0.0323957,-1.85183,0.0323787,0.00104686,0.17723,0.306858,0.00994086,2,1.00238,3.48799
2,1,Potentiostatic EIS,99.6766,3.48799,0.000303616,1.77827,0.0324409,-1.85843,0.0324239,0.00105206,0.223113,0.306739,0.00995091,2,1.12469,3.48799
2,1,Potentiostatic EIS,101.987,3.48799,0.000426262,1.58489,0.032497,-1.84086,0.0324802,0.00104392,0.209969,0.305813,0.009938,2,1.26192,3.48799
2,1,Potentiostatic EIS,104.576,3.488,0.000255076,1.41253,0.0325547,-1.86354,0.0325375,0.00105865,0.176304,0.305459,0.00994417,2,1.4159,3.488
2,1,Potentiostatic EIS,107.481,3.48799,0.000380616,1.25892,0.0325984,-1.88681,0.0325807,0.00107331,0.190453,0.305148,0.00994735,2,1.58866,3.48799
2,1,Potentiostatic EIS,110.737,3.48799,0.000325634,1.12202,0.0326655,-1.9257,0.0326471,0.00109767,0.203916,0.304521,0.00994735,2,1.78251,3.48799
2,1,Potentiostatic EIS,114.389,3.48798,0.000196037,0.999995,0.0327035,-1.96353,0.0326843,0.00112053,0.210914,0.304184,0.00994787,2,2.00001,3.48798
2,1,Potentiostatic EIS,118.485,3.48799,0.000351204,0.891248,0.0327596,-2.01171,0.0327394,0.00114999,0.186172,0.303554,0.0099443,2,2.24404,3.48799
2,1,Potentiostatic EIS,123.08,3.488,0.000407007,0.794324,0.0328187,-2.04228,0.0327979,0.00116956,0.212237,0.30318,0.00994999,2,2.51786,3.488
2,1,Potentiostatic EIS,128.234,3.48799,0.000134735,0.707944,0.0328702,-2.09597,0.0328482,0.00120218,0.20424,0.302513,0.00994367,2,2.82508,3.48799
2,1,Potentiostatic EIS,134.013,3.488,0.000528433,0.630955,0.0329348,-2.17107,0.0329112,0.00124768,0.205928,0.302253,0.00995465,2,3.1698,3.488
2,1,Potentiostatic EIS,140.498,3.488,0.000309159,0.562339,0.0329844,-2.2362,0.0329593,0.00128702,0.177848,0.301646,0.00994959,2,3.55657,3.488
2,1,Potentiostatic EIS,147.773,3.488,0.000112555,0.501186,0.033049,-2.32059,0.0330219,0.00133819,0.224124,0.300922,0.00994517,2,3.99054,3.488
2,1,Potentiostatic EIS,155.933,3.48799,0.000339348,0.446681,0.0331336,-2.41705,0.0331041,0.00139734,0.199427,0.300017,0.00994062,2,4.47747,3.48799
2,1,Potentiostatic EIS,165.088,3.488,0.000165846,0.398106,0.0332587,-2.52734,0.0332263,0.00146658,0.199915,0.299204,0.00995118,2,5.02379,3.488
2,1,Potentiostatic EIS,175.357,3.488,0.000436071,0.354812,0.0332862,-2.61079,0.0332516,0.00151622,0.205119,0.298882,0.00994859,2,5.63679,3.488
2,1,Potentiostatic EIS,186.873,3.48799,0.000495812,0.316226,0.03329,-2.72466,0.0332524,0.00158249,0.191568,0.298879,0.00994962,2,6.32458,3.48799
2,1,Potentiostatic EIS,199.793,3.48799,-1.12397e-05,0.281837,0.0333252,-2.86227,0.0332836,0.0016641,0.186031,0.298551,0.00994923,2,7.09631,3.48799
2,1,Potentiostatic EIS,214.288,3.488,0.000438868,0.251188,0.0333957,-3.01085,0.0333496,0.00175411,0.198065,0.298012,0.00995231,2,7.96218,3.488
2,1,Potentiostatic EIS,230.551,3.488,0.000392207,0.223871,0.0334632,-3.15225,0.0334126,0.00184012,0.203317,0.29741,0.00995231,2,8.9337,3.488
2,1,Potentiostatic EIS,248.795,3.488,-0.0001224,0.199525,0.0335692,-3.30487,0.0335134,0.00193523,0.201861,0.296537,0.00995451,2,10.0238,3.488
2,1,Potentiostatic EIS,269.262,3.488,0.000426829,0.177827,0.0336465,-3.47158,0.0335848,0.00203741,0.183114,0.295772,0.00995167,2,11.2469,3.488
2,1,Potentiostatic EIS,292.233,3.488,0.000203339,0.158489,0.0337559,-3.66628,0.0336869,0.00215853,0.187821,0.294931,0.00995564,2,12.6192,3.488
2,1,Potentiostatic EIS,317.999,3.48799,-0.000353502,0.141253,0.0338566,-3.8694,0.0337795,0.00228473,0.198427,0.293809,0.00994738,2,14.159,3.48799
2,1,Potentiostatic EIS,346.911,3.48799,-1.6941e-06,0.125892,0.0339602,-4.07235,0.0338745,0.00241172,0.161013,0.292859,0.00994554,2,15.8867,3.48799
2,1,Potentiostatic EIS,379.345,3.48798,-0.000400987,0.112201,0.0340574,-4.3013,0.0339615,0.00255435,0.205828,0.292015,0.00994527,2,17.8251,3.48798
2,1,Potentiostatic EIS,415.736,3.48799,-0.000355288,0.0999997,0.0341829,-4.55721,0.0340748,0.00271598,0.176541,0.291299,0.00995746,2,20.0001,3.48799
2,1,Potentiostatic EIS,456.564,3.48799,2.42064e-05,0.0891246,0.0343241,-4.80876,0.0342033,0.0028774,0.197855,0.289757,0.00994564,2,22.4405,3.48799
2,1,Potentiostatic EIS,502.364,3.48799,-0.000618915,0.0794325,0.0344684,-5.11122,0.0343314,0.00307077,0.190207,0.288629,0.00994859,2,25.1786,3.48799
2,1,Potentiostatic EIS,553.763,3.48799,-0.00020862,0.0707942,0.034628,-5.44027,0.0344721,0.00328302,0.163541,0.287553,0.00995738,2,28.2509,3.48799
2,1,Potentiostatic EIS,611.42,3.48799,-1.7626e-05,0.0630955,0.0347915,-5.76323,0.0346156,0.00349368,0.184039,0.285965,0.00994916,2,31.698,3.48799
2,1,Potentiostatic EIS,676.11,3.488,-0.000527595,0.0562339,0.035032,-6.12813,0.0348319,0.00373975,0.182414,0.284025,0.00995003,2,35.5657,3.488
2,1,Potentiostatic EIS,748.693,3.48799,-0.000131647,0.0501185,0.0352309,-6.51953,0.0350031,0.00400018,0.203834,0.28241,0.00994953,2,39.9054,3.48799
2,1,Potentiostatic EIS,821.445,3.488,-0.000145406,0.05,0.0351923,-6.55892,0.034962,0.00401984,0.190292,0.282901,0.00995589,2,40,3.488