File: Data/P190/P190_03/EIS_08_P190_03_5/2_EIS_08_P190_03_5 20231004 162519.csv
Step number,Repeats,Step name,Elapsed Time  (s),DC Working Electrode (V),DC Current (A),Frequency (Hz),|Z| (Ohms),Phase (deg),Z' (Ohms),-Z" (Ohms),THD (%),Amplitude (A),Amplitude (V),No of Cycles,Duration of Each Frequency (s),IR Compensated DC Working Electrode (V)
2,1,Potentiostatic EIS,60.2985,3.53391,-0.0155234,1000000,2.10836,87.5074,0.0916918,-2.10637,1.31324,0.00474955,0.0100143,1430,0.00143,3.53391
2,1,Potentiostatic EIS,60.5457,3.53387,-0.0169424,891251,1.89038,87.2464,0.0908156,-1.88819,1.42886,0.00528128,0.00998365,1310,0.00146984,3.53387
2,1,Potentiostatic EIS,60.7952,3.53385,-0.0173887,794328,1.69477,87.0785,0.0863787,-1.69257,1.54028,0.00589775,0.00999539,1445,0.00181915,3.53385
2,1,Potentiostatic EIS,61.048,3.5338,-0.0180553,707946,1.51554,87.242,0.0729234,-1.51379,1.25149,0.00659982,0.0100023,1340,0.0018928,3.5338
2,1,Potentiostatic EIS,61.3049,3.53378,-0.0190823,630957.25,1.35441,86.648,0.0791925,-1.35209,1.35298,0.00736117,0.00997006,1355,0.00214753,3.53378
2,1,Potentiostatic EIS,61.5704,3.53374,-0.0196002,562341.25,1.21106,86.4697,0.0745726,-1.20877,1.32055,0.0082352,0.0099734,1360,0.00241846,3.53374
2,1,Potentiostatic EIS,61.8352,3.53372,-0.0200692,501187,1.08465,86.6707,0.0629911,-1.08282,1.54358,0.00920559,0.00998488,1385,0.00276344,3.53372
2,1,Potentiostatic EIS,62.1048,3.5337,-0.0211667,446684,0.96784,86.1411,0.0651357,-0.965646,1.59828,0.0102899,0.00995909,1360,0.00304466,3.5337
2,1,Potentiostatic EIS,62.3839,3.53363,-0.0223277,398107,0.867534,85.8031,0.0634897,-0.865207,1.73358,0.0113643,0.00985917,1400,0.00351664,3.53363
2,1,Potentiostatic EIS,62.6746,3.53363,-0.0227483,354813,0.773039,85.5878,0.0594709,-0.770748,1.51597,0.0125061,0.00966793,1365,0.00384709,3.53363
2,1,Potentiostatic EIS,63.0084,3.5336,-0.0235605,316228,0.692166,85.541,0.0538129,-0.690071,1.40106,0.014356,0.0099368,1370,0.00433232,3.5336
2,1,Potentiostatic EIS,63.3602,3.53356,-0.0247308,281838.25,0.622203,84.9114,0.055187,-0.619751,1.55852,0.0160424,0.00998163,1370,0.00486094,3.53356
2,1,Potentiostatic EIS,63.731,3.53354,-0.0249839,251189,0.557113,84.435,0.0540263,-0.554487,1.775,0.0179161,0.00998129,1340,0.00533464,3.53354
2,1,Potentiostatic EIS,64.1233,3.53349,-0.0262863,223872,0.499011,84.5134,0.0477122,-0.496725,1.72846,0.0199686,0.00996462,1360,0.0060749,3.53349
2,1,Potentiostatic EIS,64.7034,3.53344,-0.0270739,199526,0.445464,84.1819,0.0451569,-0.44317,1.71709,0.0222807,0.00992538,1355,0.00679109,3.53344
2,1,Potentiostatic EIS,65.142,3.53338,-0.0285453,177828,0.400099,83.5204,0.0451509,-0.397544,1.89749,0.0248537,0.00994401,1355,0.00761973,3.53338
2,1,Potentiostatic EIS,65.6064,3.53336,-0.0297731,158489,0.358271,83.0756,0.0431931,-0.355658,1.89016,0.0276407,0.0099031,1360,0.00858103,3.53336
2,1,Potentiostatic EIS,66.1039,3.53331,-0.0309712,141254,0.321404,82.9807,0.0392768,-0.318995,1.99534,0.0303866,0.0097676,1355,0.00959267,3.53331
2,1,Potentiostatic EIS,66.6818,3.53318,-0.0344535,125892,0.289276,82.1647,0.0394359,-0.286576,1.97248,0.0344542,0.00996682,1370,0.0108823,3.53318
2,1,Potentiostatic EIS,67.3093,3.53316,-0.0350096,112202,0.259474,81.7557,0.0372069,-0.256793,2.13041,0.0385566,0.0100043,1360,0.012121,3.53316
2,1,Potentiostatic EIS,67.8776,3.53315,-0.0349647,99999.9,0.231948,81.2191,0.0354083,-0.229229,2.24406,0.042056,0.00975577,1370,0.0137,3.53315
2,1,Potentiostatic EIS,68.5511,3.53306,-0.0370014,89125.1,0.208197,80.7442,0.033487,-0.205486,1.9745,0.048027,0.00999919,1365,0.0153156,3.53306
2,1,Potentiostatic EIS,69.5985,3.533,-0.0380904,79432.8,0.187617,79.8445,0.0330806,-0.184677,2.88886,0.0531704,0.00997571,1365,0.0171843,3.533
2,1,Potentiostatic EIS,70.7989,3.53357,-0.0196613,70794.5,0.167914,79.1968,0.0314732,-0.164938,3.72355,0.0594117,0.00997612,1370,0.0193518,3.53357
2,1,Potentiostatic EIS,71.0158,3.53357,-0.0199631,63095.7,0.150662,78.6789,0.0295759,-0.14773,4.11103,0.0665078,0.0100201,1290,0.0204451,3.53357
2,1,Potentiostatic EIS,71.2349,3.53359,-0.0205627,56234.1,0.135988,77.5796,0.0292486,-0.132805,4.29768,0.0737996,0.010036,1150,0.0204502,3.53359
2,1,Potentiostatic EIS,71.4632,3.53353,-0.0199775,50118.7,0.122438,76.8599,0.0278343,-0.119232,4.59004,0.0809374,0.0099114,1025,0.0204515,3.53353
2,1,Potentiostatic EIS,71.6833,3.53359,-0.0201724,44668.3,0.10954,75.1483,0.0280771,-0.105881,4.84874,0.0915532,0.0100289,910,0.0203724,3.53359
2,1,Potentiostatic EIS,71.9046,3.53355,-0.0200267,39810.7,0.0986359,74.3943,0.0265347,-0.0949998,5.16704,0.101618,0.0100234,815,0.0204719,3.53355
2,1,Potentiostatic EIS,72.1254,3.53352,-0.0203131,35481.3,0.0891299,73.0363,0.0260051,-0.0852519,5.51885,0.112527,0.0100294,725,0.0204333,3.53352
2,1,Potentiostatic EIS,72.3487,3.53354,-0.0197241,31622.8,0.0805855,71.3354,0.0257896,-0.0763474,5.72611,0.125274,0.0100954,645,0.0203967,3.53354
2,1,Potentiostatic EIS,72.5723,3.53359,-0.0195896,28183.8,0.0725146,70.0889,0.0246957,-0.0681798,6.16464,0.137972,0.0100051,575,0.0204018,3.53359
2,1,Potentiostatic EIS,72.793,3.53385,-0.00948083,25118.8,0.0662226,68.0946,0.0247061,-0.0614414,6.49379,0.152977,0.0101307,510,0.0203035,3.53385
2,1,Potentiostatic EIS,73.013,3.53393,-0.00818435,22387.2,0.059385,66.3531,0.0238193,-0.0543987,6.53301,0.169454,0.0100633,455,0.0203241,3.53393
2,1,Potentiostatic EIS,73.2356,3.53393,-0.00779737,19952.6,0.0545156,64.1207,0.0237948,-0.0490485,6.61089,0.185331,0.0101036,405,0.0202981,3.53393
2,1,Potentiostatic EIS,73.4563,3.53391,-0.00766389,17782.8,0.0497567,61.9635,0.0233873,-0.0439177,6.97655,0.202544,0.010078,360,0.0202443,3.53391
2,1,Potentiostatic EIS,73.6847,3.53393,-0.00713603,15848.9,0.0453137,59.5127,0.0229898,-0.0390487,6.88754,0.221138,0.0100207,320,0.0201906,3.53393
2,1,Potentiostatic EIS,73.9058,3.53396,-0.00649611,14125.4,0.0419721,56.7566,0.023009,-0.0351033,6.82548,0.239051,0.0100336,285,0.0201765,3.53396
2,1,Potentiostatic EIS,74.127,3.53397,-0.00633479,12589.2,0.0387394,54.2283,0.0226454,-0.0314313,6.74189,0.258503,0.0100143,255,0.0202554,3.53397
2,1,Potentiostatic EIS,74.3618,3.53398,-0.00653639,11220.2,0.0359214,50.9867,0.0226126,-0.027911,6.73598,0.279527,0.0100412,225,0.0200532,3.53398
2,1,Potentiostatic EIS,74.711,3.53405,-0.00541183,9999.98,0.0336092,48.621,0.0222169,-0.0252188,3.02635,0.297611,0.0100025,307,0.0307001,3.53405
2,1,Potentiostatic EIS,74.966,3.53408,-0.00492621,8912.5,0.0315642,45.9,0.0219659,-0.022667,3.29074,0.322929,0.010193,273,0.0306311,3.53408
2,1,Potentiostatic EIS,75.2245,3.53408,-0.00489555,7943.27,0.0296752,43.4757,0.0215343,-0.020418,3.58759,0.340685,0.0101099,244,0.0307178,3.53408
2,1,Potentiostatic EIS,75.4366,3.53408,-0.00450754,7079.45,0.0275172,40.8688,0.0208088,-0.0180053,3.96751,0.325321,0.00895193,217,0.0306521,3.53408
2,1,Potentiostatic EIS,75.6476,3.5341,-0.00445978,6309.57,0.0258205,36.3027,0.0208087,-0.0152871,4.0969,0.369578,0.00954269,193,0.0305885,3.5341
2,1,Potentiostatic EIS,75.8592,3.53409,-0.00461661,5623.41,0.0248989,32.3005,0.021046,-0.013305,4.03779,0.419229,0.0104384,172,0.0305864,3.53409
2,1,Potentiostatic EIS,76.0702,3.53409,-0.00465073,5011.87,0.0242685,28.8288,0.0212607,-0.0117021,4.00057,0.429894,0.0104329,153,0.0305276,3.53409
2,1,Potentiostatic EIS,76.2819,3.53412,-0.00391714,4466.83,0.0237264,25.6519,0.0213879,-0.0102712,3.90605,0.436755,0.0103626,137,0.0306705,3.53412
2,1,Potentiostatic EIS,76.4964,3.53414,-0.00338544,3981.07,0.023273,22.8297,0.0214498,-0.00902978,3.79948,0.441243,0.010269,122,0.0306451,3.53414
2,1,Potentiostatic EIS,76.7061,3.53414,-0.00326785,3548.13,0.0229201,20.1303,0.0215199,-0.0078881,3.68144,0.444486,0.0101876,108,0.0304386,3.53414
2,1,Potentiostatic EIS,76.9169,3.53417,-0.00253813,3162.27,0.0226446,17.6371,0.0215802,-0.00686102,3.58888,0.446763,0.0101168,97,0.0306742,3.53417
2,1,Potentiostatic EIS,77.0849,3.53418,-0.00217214,2818.38,0.0224234,15.3321,0.0216253,-0.00592902,3.54312,0.415745,0.00932239,86,0.030514,3.53418
2,1,Potentiostatic EIS,77.2534,3.53417,-0.00226972,2511.88,0.0222828,13.1826,0.0216956,-0.0050817,3.14577,0.466963,0.0104052,77,0.0306543,3.53417
2,1,Potentiostatic EIS,77.4217,3.53418,-0.00215984,2238.72,0.0221891,11.1922,0.0217671,-0.00430691,3.06137,0.4687,0.0104,68,0.0303745,3.53418
2,1,Potentiostatic EIS,77.5895,3.53419,-0.00204741,1995.26,0.0221472,9.41005,0.0218492,-0.00362105,2.80966,0.465123,0.0103012,61,0.0305725,3.53419
2,1,Potentiostatic EIS,77.7557,3.53422,-0.00110273,1778.28,0.0221242,7.72821,0.0219233,-0.00297513,2.78007,0.461821,0.0102174,54,0.0303664,3.53422
2,1,Potentiostatic EIS,77.9231,3.53422,-0.00123946,1584.89,0.0221717,6.16866,0.0220434,-0.00238248,2.67469,0.457371,0.0101407,48,0.030286,3.53422
2,1,Potentiostatic EIS,78.0458,3.53422,-0.00131411,1412.53,0.0222308,4.76977,0.0221539,-0.00184854,2.56003,0.387532,0.00861515,43,0.0304417,3.53422
2,1,Potentiostatic EIS,78.1693,3.53421,-0.00144628,1258.92,0.022313,3.54321,0.0222704,-0.00137897,2.40456,0.409228,0.0091311,38,0.0301845,3.53421
2,1,Potentiostatic EIS,78.2936,3.53423,-0.00107367,1122.02,0.0224329,2.41166,0.0224131,-0.000943954,2.36965,0.451662,0.0101321,34,0.0303026,3.53423
2,1,Potentiostatic EIS,78.4165,3.53421,-0.00136882,999.999,0.0225772,1.37494,0.0225707,-0.000541738,2.22707,0.456639,0.0103096,30,0.03,3.53421
2,1,Potentiostatic EIS,78.5394,3.53421,-0.00168886,891.25,0.0227109,0.383503,0.0227104,-0.000152012,2.16665,0.450357,0.010228,27,0.0302945,3.53421
2,1,Potentiostatic EIS,78.663,3.53423,-0.000875957,794.328,0.0228836,-0.415571,0.022883,0.000165975,2.13419,0.444263,0.0101663,24,0.0302142,3.53423
2,1,Potentiostatic EIS,78.7853,3.53425,-0.000427363,707.945,0.023052,-1.16259,0.0230473,0.000467716,2.10956,0.439449,0.0101302,21,0.0296633,3.53425
2,1,Potentiostatic EIS,78.9085,3.53425,-0.000555495,630.956,0.0232574,-1.89263,0.0232447,0.000768112,2.06245,0.433578,0.0100839,19,0.030113,3.53425
2,1,Potentiostatic EIS,79.0315,3.53424,-0.000909996,562.34,0.0234451,-2.44553,0.0234237,0.00100039,2.03072,0.429602,0.0100721,17,0.0302308,3.53424
2,1,Potentiostatic EIS,79.1543,3.53423,-0.00106504,501.185,0.0236543,-3.01211,0.0236216,0.00124296,1.99373,0.424831,0.0100491,15,0.029929,3.53423
2,1,Potentiostatic EIS,79.2764,3.53422,-0.00121198,446.683,0.0238747,-3.49804,0.0238303,0.0014567,1.94496,0.419612,0.0100181,13,0.0291034,3.53422
2,1,Potentiostatic EIS,79.3549,3.53424,-0.000599978,398.107,0.0241121,-3.85551,0.0240576,0.00162131,1.94865,0.35805,0.00863335,12,0.0301427,3.53424
2,1,Potentiostatic EIS,79.434,3.53423,-0.000530777,354.813,0.0243387,-4.14646,0.024275,0.00175984,1.8791,0.366151,0.00891162,10,0.0281839,3.53423
2,1,Potentiostatic EIS,79.5132,3.53424,-0.000422349,316.227,0.0245815,-4.48633,0.0245062,0.0019228,1.80352,0.371911,0.00914214,9,0.0284606,3.53424
2,1,Potentiostatic EIS,79.5924,3.53424,-0.000448191,281.838,0.0248206,-4.73355,0.024736,0.00204825,1.7335,0.375459,0.00931912,8,0.0283851,3.53424
2,1,Potentiostatic EIS,79.6721,3.53424,-0.00028029,251.188,0.0250686,-4.93293,0.0249757,0.00215563,1.6248,0.377567,0.00946506,8,0.0318487,3.53424
2,1,Potentiostatic EIS,79.7566,3.53425,-0.000202413,223.872,0.0253251,-5.07124,0.0252259,0.00223859,1.5288,0.378292,0.00958026,8,0.0357347,3.53425
2,1,Potentiostatic EIS,79.845,3.53424,-0.000230128,199.526,0.0255662,-5.1869,0.0254615,0.00231131,1.44559,0.377987,0.00966371,8,0.0400951,3.53424
2,1,Potentiostatic EIS,79.9385,3.53424,-0.000116302,177.828,0.025817,-5.26447,0.0257081,0.00236879,1.33635,0.376883,0.00972998,8,0.0449874,3.53424
2,1,Potentiostatic EIS,80.0373,3.53423,-0.000309615,158.489,0.0260566,-5.30828,0.0259449,0.00241061,1.25814,0.375173,0.00977575,8,0.0504767,3.53423
2,1,Potentiostatic EIS,80.1437,3.53423,-0.000436415,141.253,0.0262891,-5.27155,0.0261779,0.00241534,1.12663,0.373131,0.00980926,8,0.0566359,3.53423
2,1,Potentiostatic EIS,80.2566,3.53423,-0.000625909,125.892,0.0265306,-5.30852,0.0264168,0.00245457,1.05271,0.370785,0.00983715,8,0.0635464,3.53423
2,1,Potentiostatic EIS,80.378,3.53424,-0.000516088,112.201,0.0267512,-5.25711,0.0266386,0.00245108,0.98199,0.368378,0.00985455,8,0.0713003,3.53424
2,1,Potentiostatic EIS,80.5059,3.53424,-0.000428072,99.9997,0.0269924,-5.23818,0.0268797,0.0024643,0.875679,0.365702,0.00987118,8,0.0800003,3.53424
2,1,Potentiostatic EIS,80.6462,3.53424,-0.000169179,89.1248,0.0272074,-5.15762,0.0270972,0.00244584,0.809389,0.363001,0.00987631,8,0.0897617,3.53424
2,1,Potentiostatic EIS,80.7974,3.53424,-0.000350084,79.4325,0.0274262,-5.04034,0.0273201,0.00240958,0.748711,0.360376,0.00988372,8,0.100714,3.53424
2,1,Potentiostatic EIS,80.9619,3.53424,-0.000282609,70.7943,0.0276354,-4.92574,0.0275334,0.0023729,0.671375,0.357727,0.00988595,8,0.113003,3.53424
2,1,Potentiostatic EIS,81.1407,3.53423,-0.000331364,63.0956,0.027848,-4.81027,0.0277499,0.00233523,0.621956,0.355259,0.00989324,8,0.126792,3.53423
2,1,Potentiostatic EIS,81.3369,3.53424,-2.36601e-05,56.2341,0.0280369,-4.72032,0.0279418,0.00230721,0.533308,0.343778,0.00963847,8,0.142263,3.53424
2,1,Potentiostatic EIS,81.5526,3.53424,-0.000253703,50.1186,0.0282279,-4.55863,0.0281386,0.00224353,0.479242,0.342558,0.00966969,8,0.159621,3.53424
2,1,Potentiostatic EIS,81.7881,3.53425,-0.000244,44.6682,0.028405,-4.39359,0.0283215,0.00217603,0.435812,0.341256,0.00969338,8,0.179098,3.53425
2,1,Potentiostatic EIS,82.0459,3.53424,-0.000593267,39.8106,0.0285781,-4.22826,0.0285003,0.00210706,0.402643,0.339903,0.00971379,8,0.200952,3.53424
2,1,Potentiostatic EIS,82.3308,3.53425,-0.000280919,35.4812,0.0287386,-4.05462,0.0286667,0.00203203,0.36935,0.338851,0.0097381,8,0.225471,3.53425
2,1,Potentiostatic EIS,82.4745,3.53424,-0.0010723,31.6227,0.0288864,-3.88053,0.0288202,0.00195492,0.323281,0.341638,0.00986867,2,0.0632458,3.53424
2,1,Potentiostatic EIS,82.6202,3.53424,-0.000839627,28.1838,0.029048,-3.69312,0.0289877,0.00187105,0.324561,0.340694,0.00989651,2,0.0709628,3.53424
2,1,Potentiostatic EIS,82.7822,3.53426,-0.000650876,25.1188,0.0291834,-3.53257,0.0291279,0.00179816,0.289851,0.330024,0.00963127,2,0.0796217,3.53426
2,1,Potentiostatic EIS,82.9625,3.53425,-0.000591628,22.3871,0.0293037,-3.36347,0.0292532,0.00171925,0.282951,0.330664,0.00968965,2,0.0893371,3.53425
2,1,Potentiostatic EIS,83.1618,3.53425,-0.000655532,19.9525,0.0294195,-3.19105,0.0293738,0.00163765,0.313913,0.330982,0.0097373,2,0.100238,3.53425
2,1,Potentiostatic EIS,83.3844,3.53425,-0.000889587,17.7828,0.0295369,-3.03712,0.0294954,0.00156495,0.284298,0.331145,0.00978095,2,0.112468,3.53425
2,1,Potentiostatic EIS,83.6319,3.53426,-0.00149017,15.8489,0.0296226,-2.84753,0.029586,0.0014716,0.279464,0.331122,0.00980862,2,0.126192,3.53426
2,1,Potentiostatic EIS,83.9072,3.53426,-0.000981999,14.1253,0.0297243,-2.70537,0.0296912,0.00140299,0.251604,0.330856,0.00983444,2,0.14159,3.53426
2,1,Potentiostatic EIS,84.2138,3.53425,-0.00114512,12.5892,0.0298099,-2.58071,0.0297796,0.00134224,0.222645,0.330779,0.00986058,2,0.158866,3.53425
2,1,Potentiostatic EIS,84.5561,3.53423,-0.00136062,11.2201,0.0298773,-2.44499,0.0298501,0.00127457,0.239875,0.330524,0.00987515,2,0.178251,3.53423
2,1,Potentiostatic EIS,84.938,3.53424,-0.00110283,9.99996,0.0299521,-2.31732,0.0299276,0.00121108,0.242028,0.329971,0.00988337,2,0.200001,3.53424
2,1,Potentiostatic EIS,85.3641,3.53423,-0.0017567,8.91248,0.0300238,-2.20846,0.0300015,0.00115698,0.236903,0.329804,0.00990199,2,0.224404,3.53423
2,1,Potentiostatic EIS,85.8402,3.53424,-0.00165873,7.94325,0.0300874,-2.11764,0.0300668,0.00111177,0.222438,0.329259,0.00990653,2,0.251786,3.53424
2,1,Potentiostatic EIS,86.3721,3.53425,-0.00155039,7.07944,0.0301468,-2.00476,0.0301283,0.00105461,0.210055,0.328852,0.00991383,2,0.282508,3.53425
2,1,Potentiostatic EIS,86.9677,3.53425,-0.0013527,6.30955,0.0301942,-1.90372,0.0301775,0.00100305,0.228128,0.328381,0.00991517,2,0.31698,3.53425
2,1,Potentiostatic EIS,87.6316,3.53425,-0.00176346,5.62339,0.0302549,-1.85113,0.0302391,0.000977315,0.233746,0.328067,0.00992565,2,0.355657,3.53425
2,1,Potentiostatic EIS,88.3748,3.53424,-0.00178954,5.01185,0.0302979,-1.77791,0.0302833,0.000940005,0.223297,0.327548,0.00992401,2,0.399054,3.53424
2,1,Potentiostatic EIS,89.2068,3.53424,-0.0016933,4.46682,0.0303481,-1.72301,0.0303343,0.000912493,0.232999,0.327257,0.0099316,2,0.447745,3.53424
2,1,Potentiostatic EIS,90.1378,3.53424,-0.00160251,3.98106,0.0303855,-1.65769,0.0303728,0.000878992,0.206465,0.326741,0.0099282,2,0.502378,3.53424
2,1,Potentiostatic EIS,91.1807,3.53424,-0.00186304,3.54812,0.0304337,-1.6209,0.0304215,0.000860857,0.229887,0.326363,0.00993241,2,0.563679,3.53424
2,1,Potentiostatic EIS,92.3471,3.53423,-0.00194856,3.16227,0.0304652,-1.58086,0.0304536,0.000840467,0.228925,0.326048,0.00993312,2,0.632458,3.53423
2,1,Potentiostatic EIS,93.6532,3.53424,-0.00207738,2.81837,0.0304695,-1.56398,0.0304581,0.000831608,0.257802,0.325901,0.00992993,2,0.70963,3.53424
2,1,Potentiostatic EIS,95.1159,3.53424,-0.00230793,2.51188,0.0305174,-1.56541,0.030506,0.000833679,0.265727,0.325637,0.00993762,2,0.796217,3.53424
2,1,Potentiostatic EIS,96.7565,3.53424,-0.00232128,2.23872,0.030552,-1.52618,0.0305412,0.000813712,0.268669,0.325287,0.00993815,2,0.893369,3.53424
2,1,Potentiostatic EIS,98.5948,3.53425,-0.00216971,1.99526,0.0305862,-1.54597,0.0305751,0.000825182,0.247079,0.324853,0.00993604,2,1.00238,3.53425
2,1,Potentiostatic EIS,100.655,3.53425,-0.00228828,1.77827,0.030638,-1.55267,0.0306267,0.000830163,0.254561,0.324388,0.00993859,2,1.12469,3.53425
2,1,Potentiostatic EIS,102.965,3.53424,-0.00246267,1.58489,0.0306594,-1.55496,0.0306481,0.000831967,0.28166,0.324073,0.00993584,2,1.26192,3.53424
2,1,Potentiostatic EIS,105.555,3.53424,-0.0022051,1.41253,0.0307043,-1.57903,0.0306927,0.000846081,0.288852,0.323632,0.00993691,2,1.4159,3.53424
2,1,Potentiostatic EIS,108.459,3.53424,-0.00233681,1.25892,0.0307401,-1.60852,0.030728,0.000862885,0.271356,0.323529,0.00994531,2,1.58866,3.53424
2,1,Potentiostatic EIS,111.716,3.53424,-0.00245954,1.12202,0.0307862,-1.65658,0.0307733,0.000889992,0.254608,0.322883,0.00994034,2,1.78251,3.53424
2,1,Potentiostatic EIS,115.368,3.53425,-0.00208723,0.999995,0.0308298,-1.68056,0.0308166,0.00090415,0.258525,0.322264,0.00993535,2,2.00001,3.53425
2,1,Potentiostatic EIS,119.463,3.53424,-0.00234974,0.891248,0.0308753,-1.73645,0.0308612,0.000935587,0.252042,0.322035,0.00994292,2,2.24404,3.53424
2,1,Potentiostatic EIS,124.058,3.53425,-0.0021569,0.794324,0.0309259,-1.79897,0.0309106,0.000970847,0.266957,0.321514,0.00994309,2,2.51786,3.53425
2,1,Potentiostatic EIS,129.212,3.53425,-0.00173821,0.707944,0.0309765,-1.86028,0.0309601,0.00100557,0.224083,0.320687,0.00993376,2,2.82508,3.53425
2,1,Potentiostatic EIS,134.991,3.53425,-0.00204967,0.630955,0.0310339,-1.94941,0.031016,0.00105568,0.243225,0.320166,0.009936,2,3.1698,3.53425
2,1,Potentiostatic EIS,141.477,3.53424,-0.00206769,0.562339,0.0310822,-2.0447,0.0310624,0.00110899,0.269412,0.319956,0.0099449,2,3.55657,3.53424
2,1,Potentiostatic EIS,148.751,3.53424,-0.00168384,0.501186,0.0311347,-2.09387,0.0311139,0.00113756,0.271548,0.319092,0.00993481,2,3.99054,3.53424
2,1,Potentiostatic EIS,156.911,3.53425,-0.00198277,0.446681,0.0311841,-2.22005,0.0311607,0.00120799,0.248936,0.318515,0.00993261,2,4.47747,3.53425
2,1,Potentiostatic EIS,166.065,3.53425,-0.00178794,0.398106,0.0312576,-2.33638,0.0312316,0.00127425,0.250147,0.318297,0.00994918,2,5.02379,3.53425
2,1,Potentiostatic EIS,176.335,3.53425,-0.00153844,0.354812,0.0313195,-2.43329,0.0312913,0.00132971,0.24779,0.317325,0.00993846,2,5.63679,3.53425
2,1,Potentiostatic EIS,187.85,3.53425,-0.00180635,0.316226,0.0313716,-2.57265,0.03134,0.00140815,0.248922,0.316697,0.00993525,2,6.32458,3.53425
2,1,Potentiostatic EIS,200.769,3.53425,-0.00145,0.281837,0.0314552,-2.7124,0.03142,0.00148854,0.239347,0.316032,0.00994086,2,7.09631,3.53425
2,1,Potentiostatic EIS,215.265,3.53426,-0.00145935,0.251188,0.0315033,-2.86907,0.0314638,0.00157686,0.256171,0.315633,0.00994345,2,7.96218,3.53426
2,1,Potentiostatic EIS,231.528,3.53425,-0.0017352,0.223871,0.0315891,-3.03408,0.0315448,0.00167201,0.246943,0.314712,0.00994148,2,8.9337,3.53425
2,1,Potentiostatic EIS,249.772,3.53426,-0.00103676,0.199525,0.0316747,-3.19471,0.0316255,0.00176521,0.256261,0.313841,0.00994081,2,10.0238,3.53426
2,1,Potentiostatic EIS,270.239,3.53426,-0.00139697,0.177827,0.0317569,-3.39472,0.0317012,0.00188046,0.242539,0.313034,0.00994097,2,11.2469,3.53426
2,1,Potentiostatic EIS,293.21,3.53426,-0.00127804,0.158489,0.0318232,-3.58106,0.031761,0.00198769,0.242747,0.312229,0.00993613,2,12.6192,3.53426
2,1,Potentiostatic EIS,318.976,3.53426,-0.00057595,0.141253,0.0319202,-3.78638,0.0318506,0.00210791,0.249187,0.31143,0.00994089,2,14.159,3.53426
2,1,Potentiostatic EIS,347.889,3.53426,-0.00112184,0.125892,0.0320228,-4.0178,0.0319441,0.00224372,0.243043,0.310412,0.00994024,2,15.8867,3.53426
2,1,Potentiostatic EIS,380.322,3.53425,-0.000990666,0.112201,0.0321219,-4.2774,0.0320324,0.00239582,0.246782,0.309519,0.00994234,2,17.8251,3.53425
2,1,Potentiostatic EIS,416.714,3.53425,-0.000433742,0.0999997,0.0322228,-4.53356,0.032122,0.00254699,0.244315,0.308509,0.00994102,2,20.0001,3.53425
2,1,Potentiostatic EIS,457.541,3.53426,-0.000936815,0.0891246,0.0323396,-4.82586,0.032225,0.00272065,0.231142,0.30735,0.00993956,2,22.4405,3.53426
2,1,Potentiostatic EIS,503.341,3.53426,-0.000375246,0.0794325,0.0324549,-5.13158,0.0323248,0.00290287,0.235605,0.306176,0.0099369,2,25.1786,3.53426
2,1,Potentiostatic EIS,554.74,3.53426,-0.000249551,0.0707942,0.0326049,-5.46073,0.0324569,0.0031028,0.231168,0.305053,0.00994622,2,28.2509,3.53426
2,1,Potentiostatic EIS,612.397,3.53427,-0.000754546,0.0630955,0.0327516,-5.81835,0.0325829,0.00332019,0.232924,0.303609,0.00994368,2,31.698,3.53427
2,1,Potentiostatic EIS,677.085,3.53426,-5.0703e-05,0.0562339,0.0329326,-6.20504,0.0327397,0.00355958,0.243085,0.301984,0.00994511,2,35.5657,3.53426
2,1,Potentiostatic EIS,749.667,3.53426,-0.000453044,0.0501185,0.0331171,-6.62051,0.0328963,0.00381817,0.213886,0.300502,0.00995174,2,39.9054,3.53426
2,1,Potentiostatic EIS,822.419,3.53426,-0.000395579,0.05,0.0330967,-6.62863,0.0328755,0.00382047,0.210598,0.300484,0.00994507,2,40,3.53426