File: Data/P190/P190_03/EIS_02_P190_03_5/2_EIS_02_P190_03_5 20230907 113639.csv
Step number,Repeats,Step name,Elapsed Time  (s),DC Working Electrode (V),DC Current (A),Frequency (Hz),|Z| (Ohms),Phase (deg),Z' (Ohms),-Z" (Ohms),THD (%),Amplitude (A),Amplitude (V),No of Cycles,Duration of Each Frequency (s),IR Compensated DC Working Electrode (V)
2,1,Potentiostatic EIS,0,3.45786,-0.00946675,1000000,2.95248,88.0804,0.0989012,-2.95082,1.41469,0.00335494,0.00990525,1430,0.00143,3.45786
2,1,Potentiostatic EIS,0.226787,3.4578,-0.0106907,794328,2.35722,87.8004,0.0904736,-2.35548,1.64857,0.00415481,0.00979378,1445,0.00181915,3.4578
2,1,Potentiostatic EIS,0.485181,3.45774,-0.011509,630957.375,1.88586,87.0864,0.0958593,-1.88342,1.46361,0.00528776,0.00997194,1355,0.00214753,3.45774
2,1,Potentiostatic EIS,0.757951,3.45771,-0.0121058,501187.25,1.50009,86.992,0.0787165,-1.49802,1.57601,0.00664129,0.0099626,1385,0.00276344,3.45771
2,1,Potentiostatic EIS,1.0389,3.45764,-0.0131208,398107,1.20007,86.1005,0.0816124,-1.19729,1.47778,0.00831948,0.00998396,1400,0.00351664,3.45764
2,1,Potentiostatic EIS,1.33968,3.45761,-0.0137227,316228,0.954052,85.5038,0.0747916,-0.951116,1.32754,0.0104278,0.00994866,1370,0.00433232,3.45761
2,1,Potentiostatic EIS,1.70928,3.45754,-0.0147407,251189,0.767647,84.7306,0.0704992,-0.764403,1.92834,0.0127525,0.00978897,1340,0.00533464,3.45754
2,1,Potentiostatic EIS,2.1147,3.45749,-0.0157468,199526,0.611234,84.2711,0.0610146,-0.608181,1.52684,0.0162296,0.00992018,1355,0.00679109,3.45749
2,1,Potentiostatic EIS,2.5707,3.4574,-0.0170859,158489,0.492011,83.0513,0.0595238,-0.488397,1.74108,0.0202527,0.00996449,1360,0.00858102,3.4574
2,1,Potentiostatic EIS,3.27693,3.45732,-0.018301,125893,0.39573,82.1229,0.0542345,-0.391996,1.83474,0.0252248,0.00998226,1370,0.0108823,3.45732
2,1,Potentiostatic EIS,3.89352,3.45726,-0.0197998,100000,0.317953,80.7609,0.051049,-0.313828,1.86731,0.0310699,0.00987848,1370,0.0137,3.45726
2,1,Potentiostatic EIS,4.5565,3.45714,-0.0213943,79432.8,0.256394,79.3262,0.0474887,-0.251957,2.32135,0.0390651,0.010016,1365,0.0171843,3.45714
2,1,Potentiostatic EIS,4.80049,3.45708,-0.0229383,63095.7,0.206326,77.8419,0.0434543,-0.201698,2.03511,0.0478588,0.00987475,1290,0.0204451,3.45708
2,1,Potentiostatic EIS,5.04816,3.45703,-0.0242684,50118.75,0.166845,75.6101,0.0414642,-0.161611,2.30462,0.0582962,0.00972698,1025,0.0204514,3.45703
2,1,Potentiostatic EIS,5.33236,3.45699,-0.0241386,39810.7,0.136141,72.9052,0.0400191,-0.130126,2.17559,0.0710944,0.00967912,815,0.0204719,3.45699
2,1,Potentiostatic EIS,5.6855,3.45761,-0.0119975,31622.8,0.111189,69.6027,0.0387526,-0.104218,5.12359,0.0900721,0.0100151,645,0.0203967,3.45761
2,1,Potentiostatic EIS,5.90424,3.45794,-0.00526184,25118.9,0.0916348,65.7448,0.0376437,-0.0835458,5.5539,0.109941,0.0100744,510,0.0203034,3.45794
2,1,Potentiostatic EIS,6.12538,3.458,-0.00422897,19952.6,0.0760173,61.3126,0.0364907,-0.0666863,6.05059,0.132331,0.0100596,405,0.0202981,3.458
2,1,Potentiostatic EIS,6.32718,3.45804,-0.00379151,15848.9,0.0637956,56.2646,0.0354294,-0.0530531,6.33677,0.15222,0.00971185,320,0.0201906,3.45804
2,1,Potentiostatic EIS,6.53064,3.45806,-0.00327108,12589.2,0.0550571,50.4328,0.0350704,-0.0424423,6.38244,0.179682,0.00989247,255,0.0202554,3.45806
2,1,Potentiostatic EIS,6.83628,3.45825,-0.00270339,9999.98,0.0485473,44.5681,0.0345859,-0.0340683,2.98048,0.205818,0.00999191,307,0.0307001,3.45825
2,1,Potentiostatic EIS,7.04844,3.45825,-0.00266991,7943.27,0.0437042,38.9424,0.0339922,-0.0274698,3.56594,0.241083,0.0105363,244,0.0307178,3.45825
2,1,Potentiostatic EIS,7.25981,3.4583,-0.00178446,6309.57,0.0392165,32.6,0.033038,-0.0211287,4.0032,0.26473,0.0103818,193,0.0305885,3.4583
2,1,Potentiostatic EIS,7.4712,3.45834,-0.00112711,5011.87,0.0371342,25.7564,0.033445,-0.0161365,4.01197,0.274248,0.010184,153,0.0305276,3.45834
2,1,Potentiostatic EIS,7.64144,3.45834,-0.00100425,3981.07,0.0358916,20.4139,0.0336375,-0.012519,3.82872,0.275674,0.00989437,122,0.0306451,3.45834
2,1,Potentiostatic EIS,7.81081,3.45833,-0.00135635,3162.27,0.0351266,15.884,0.0337854,-0.0096138,3.52047,0.297915,0.0104647,97,0.0306742,3.45833
2,1,Potentiostatic EIS,7.97845,3.45836,-0.000568947,2511.88,0.0346632,11.9727,0.0339091,-0.00719073,3.24136,0.295563,0.0102451,77,0.0306543,3.45836
2,1,Potentiostatic EIS,8.10177,3.45837,-0.000716341,1995.26,0.0344356,8.71951,0.0340376,-0.00522035,2.92027,0.25544,0.00879623,61,0.0305725,3.45837
2,1,Potentiostatic EIS,8.22518,3.45838,-0.000526621,1584.89,0.0344622,5.92083,0.0342784,-0.00355492,2.8457,0.302125,0.0104119,48,0.030286,3.45838
2,1,Potentiostatic EIS,8.34927,3.4584,-0.000284149,1258.92,0.0345784,3.65873,0.0345079,-0.00220657,2.61343,0.297185,0.0102762,38,0.0301845,3.4584
2,1,Potentiostatic EIS,8.47206,3.45838,-0.00010917,999.999,0.0348681,1.78602,0.0348512,-0.00108673,2.4301,0.291224,0.0101544,30,0.03,3.45838
2,1,Potentiostatic EIS,8.59793,3.4584,0.000158207,794.328,0.0351983,0.193764,0.0351981,-0.000119034,2.2696,0.286559,0.0100864,24,0.0302142,3.4584
2,1,Potentiostatic EIS,8.72191,3.45838,-0.000350654,630.956,0.0355917,-1.12942,0.0355848,0.000701541,2.16993,0.282191,0.0100436,19,0.030113,3.45838
2,1,Potentiostatic EIS,8.8014,3.45839,-0.000126319,501.187,0.0360661,-2.15882,0.0360405,0.0013586,2.04488,0.238775,0.00861169,15,0.029929,3.45839
2,1,Potentiostatic EIS,8.88106,3.4584,-8.46992e-05,398.107,0.036616,-3.03158,0.0365647,0.00193649,1.89538,0.249303,0.00912848,12,0.0301427,3.4584
2,1,Potentiostatic EIS,8.95921,3.45838,-0.000136011,316.228,0.0371908,-3.68487,0.0371139,0.00239021,1.69282,0.254452,0.00946328,9,0.0284605,3.45838
2,1,Potentiostatic EIS,9.04011,3.45839,-8.49789e-05,251.189,0.0378301,-4.26569,0.0377253,0.00281386,1.47745,0.255848,0.00967876,8,0.0318486,3.45839
2,1,Potentiostatic EIS,9.12899,3.45839,-1.83583e-05,199.526,0.0384696,-4.66679,0.0383421,0.00312992,1.26357,0.254737,0.00979965,8,0.0400951,3.45839
2,1,Potentiostatic EIS,9.22797,3.45839,0.000128715,158.489,0.0391367,-4.89065,0.0389942,0.00333657,1.06216,0.252348,0.00987607,8,0.0504766,3.45839
2,1,Potentiostatic EIS,9.33979,3.4584,0.000160984,125.892,0.0397871,-5.0444,0.039633,0.00349839,0.880788,0.249081,0.0099102,8,0.0635464,3.4584
2,1,Potentiostatic EIS,9.46793,3.45839,3.99472e-05,100,0.0404615,-5.13387,0.0402992,0.00362063,0.717762,0.245415,0.00992987,8,0.08,3.45839
2,1,Potentiostatic EIS,9.61784,3.4584,0.000103778,79.4327,0.0411052,-5.10108,0.0409424,0.00365478,0.581655,0.241724,0.00993609,8,0.100714,3.4584
2,1,Potentiostatic EIS,9.79674,3.4584,0.000141269,63.0956,0.0417232,-5.00776,0.041564,0.00364205,0.473849,0.238205,0.00993869,8,0.126792,3.4584
2,1,Potentiostatic EIS,10.0102,3.4584,0.000531474,50.1186,0.0423551,-4.91697,0.0421993,0.00363034,0.367859,0.22786,0.00965103,8,0.159621,3.4584
2,1,Potentiostatic EIS,10.2689,3.45839,-0.000124136,39.8107,0.0429349,-4.73971,0.0427881,0.00354768,0.314424,0.226274,0.00971504,8,0.200951,3.45839
2,1,Potentiostatic EIS,10.4118,3.4584,-0.000455318,31.6228,0.04349,-4.57749,0.0433513,0.00347082,0.261893,0.227235,0.00988249,2,0.0632456,3.4584
2,1,Potentiostatic EIS,10.5747,3.4584,-2.975e-05,25.1188,0.0440203,-4.32954,0.0438947,0.00332322,0.234409,0.219166,0.0096477,2,0.0796217,3.4584
2,1,Potentiostatic EIS,10.7746,3.4584,-5.86961e-05,19.9526,0.044505,-4.13485,0.0443891,0.00320899,0.236636,0.219239,0.00975721,2,0.100238,3.4584
2,1,Potentiostatic EIS,11.0218,3.45839,-0.000219883,15.8489,0.0449612,-3.90549,0.0448568,0.00306235,0.206066,0.218602,0.00982851,2,0.126192,3.45839
2,1,Potentiostatic EIS,11.3283,3.45839,-0.0001309,12.5892,0.0454059,-3.6677,0.0453129,0.0029046,0.21758,0.217407,0.00987154,2,0.158866,3.45839
2,1,Potentiostatic EIS,11.7098,3.4584,-1.17383e-05,9.99998,0.0458251,-3.44266,0.0457425,0.00275178,0.175325,0.216113,0.00990345,2,0.2,3.4584
2,1,Potentiostatic EIS,12.1848,3.45839,-0.000386012,7.94328,0.0462363,-3.2324,0.0461628,0.00260709,0.192766,0.214705,0.00992721,2,0.251785,3.45839
2,1,Potentiostatic EIS,12.7776,3.45841,-0.000252259,6.30957,0.0465937,-3.00299,0.0465297,0.00244095,0.177552,0.213235,0.00993539,2,0.316979,3.45841
2,1,Potentiostatic EIS,13.5174,3.4584,-0.000288222,5.01186,0.0468898,-2.81568,0.0468332,0.00230337,0.171053,0.21232,0.00995563,2,0.399053,3.4584
2,1,Potentiostatic EIS,14.4445,3.4584,-0.000331667,3.98106,0.0471691,-2.66637,0.047118,0.00219431,0.162983,0.211051,0.00995506,2,0.502378,3.4584
2,1,Potentiostatic EIS,15.6098,3.4584,-0.000622798,3.16227,0.0474773,-2.52561,0.0474312,0.00209213,0.173261,0.209736,0.00995771,2,0.632458,3.4584
2,1,Potentiostatic EIS,17.0724,3.4584,-0.00070153,2.51188,0.0477294,-2.38963,0.0476879,0.00199007,0.192438,0.208755,0.00996376,2,0.796216,3.4584
2,1,Potentiostatic EIS,18.9103,3.4584,-0.000562518,1.99526,0.0479353,-2.31892,0.0478961,0.00193955,0.180465,0.207963,0.00996874,2,1.00238,3.4584
2,1,Potentiostatic EIS,21.2202,3.4584,-0.000856725,1.58489,0.0481456,-2.29526,0.0481069,0.00192819,0.154879,0.206973,0.00996483,2,1.26192,3.4584
2,1,Potentiostatic EIS,24.1249,3.45839,-0.000745687,1.25892,0.0483688,-2.28991,0.0483302,0.00193262,0.188285,0.206068,0.00996727,2,1.58866,3.45839
2,1,Potentiostatic EIS,27.7768,3.4584,-0.000473679,0.999998,0.0485824,-2.30323,0.0485431,0.00195244,0.174021,0.205042,0.00996142,2,2,3.4584
2,1,Potentiostatic EIS,32.3717,3.45841,-0.000901404,0.794327,0.0486708,-2.37036,0.0486291,0.00201296,0.174043,0.204776,0.00996663,2,2.51785,3.45841
2,1,Potentiostatic EIS,38.1505,3.45839,-0.000836206,0.630956,0.0488874,-2.464,0.0488422,0.00210175,0.186239,0.204007,0.00997336,2,3.16979,3.45839
2,1,Potentiostatic EIS,45.4241,3.4584,-0.00052325,0.501186,0.0490016,-2.58845,0.0489516,0.00221299,0.204768,0.203432,0.00996845,2,3.99054,3.4584
2,1,Potentiostatic EIS,54.5791,3.45839,-0.001198,0.398106,0.0491326,-2.76578,0.0490754,0.0023708,0.202829,0.202863,0.00996715,2,5.02379,3.45839
2,1,Potentiostatic EIS,66.0947,3.45839,-0.00065582,0.316227,0.0492527,-3.00211,0.0491851,0.0025795,0.149223,0.202295,0.00996354,2,6.32457,3.45839
2,1,Potentiostatic EIS,80.5895,3.45839,-0.0004492,0.251188,0.0494319,-3.27221,0.0493513,0.00282156,0.151737,0.201674,0.00996909,2,7.96216,3.45839
2,1,Potentiostatic EIS,98.8336,3.45839,-0.000846171,0.199526,0.0496885,-3.58535,0.0495912,0.00310728,0.16406,0.200657,0.00997034,2,10.0238,3.45839
2,1,Potentiostatic EIS,121.804,3.45839,0.000102562,0.158489,0.0501059,-3.975,0.0499854,0.0034734,0.164144,0.198924,0.00996724,2,12.6192,3.45839
2,1,Potentiostatic EIS,150.717,3.45839,-0.000333664,0.125892,0.0504682,-4.41856,0.0503182,0.00388817,0.134139,0.197618,0.00997343,2,15.8866,3.45839
2,1,Potentiostatic EIS,187.108,3.45839,-0.000447264,0.0999997,0.0508616,-4.9479,0.0506721,0.00438681,0.163179,0.195907,0.00996417,2,20.0001,3.45839