File: Data/P190_04/EIS_06_P190_04_2/2_EIS_06_P190_04_2 20231011 164700.csv
Step number,Repeats,Step name,Elapsed Time  (s),DC Working Electrode (V),DC Current (A),Frequency (Hz),|Z| (Ohms),Phase (deg),Z' (Ohms),-Z" (Ohms),THD (%),Amplitude (A),Amplitude (V),No of Cycles,Duration of Each Frequency (s),IR Compensated DC Working Electrode (V)
2,1,Potentiostatic EIS,60.2975,3.4994,-0.0107748,1000000,3.23916,88.4252,0.0890187,-3.23794,1.28397,0.00306971,0.0099434,1430,0.00143,3.4994
2,1,Potentiostatic EIS,60.5238,3.49937,-0.0116725,891251,2.88534,88.0096,0.100212,-2.8836,1.13146,0.00341696,0.00985866,1310,0.00146984,3.49937
2,1,Potentiostatic EIS,60.7539,3.49935,-0.011948,794328,2.58674,87.9264,0.0935959,-2.58505,1.31898,0.0038436,0.0099424,1445,0.00181915,3.49935
2,1,Potentiostatic EIS,60.9889,3.49933,-0.0122755,707946,2.31344,87.9426,0.0830555,-2.31195,1.1528,0.00428413,0.00991107,1340,0.0018928,3.49933
2,1,Potentiostatic EIS,61.2251,3.4993,-0.0130254,630957.25,2.06683,87.3939,0.0939762,-2.0647,1.40985,0.00473712,0.00979079,1355,0.00214753,3.4993
2,1,Potentiostatic EIS,61.4697,3.49929,-0.0134349,562341.25,1.84356,87.3608,0.084888,-1.8416,1.22193,0.0052496,0.00967819,1360,0.00241846,3.49929
2,1,Potentiostatic EIS,61.7389,3.49928,-0.013609,501187,1.6468,87.368,0.0756238,-1.64507,1.17424,0.0060553,0.00997193,1385,0.00276344,3.49928
2,1,Potentiostatic EIS,62.0119,3.49926,-0.0138324,446684,1.4694,86.7964,0.0821157,-1.46711,1.30065,0.00676497,0.00994048,1360,0.00304466,3.49926
2,1,Potentiostatic EIS,62.2891,3.49923,-0.0144656,398107,1.31875,86.5983,0.0782495,-1.31643,1.25485,0.00755164,0.00995883,1400,0.00351664,3.49923
2,1,Potentiostatic EIS,62.576,3.49921,-0.0150987,354813,1.17489,86.2626,0.0765847,-1.1724,1.15978,0.00843042,0.00990476,1365,0.00384709,3.49921
2,1,Potentiostatic EIS,62.8779,3.4992,-0.0151324,316228,1.05137,86.2292,0.069143,-1.04909,1.1927,0.00946344,0.00994958,1370,0.00433232,3.4992
2,1,Potentiostatic EIS,63.194,3.49915,-0.016002,281838.25,0.941513,85.661,0.071232,-0.938815,1.31284,0.0105629,0.0099451,1370,0.00486094,3.49915
2,1,Potentiostatic EIS,63.6725,3.49914,-0.0163161,251189,0.84408,85.4014,0.0676745,-0.841363,1.35664,0.0118345,0.00998932,1340,0.00533464,3.49914
2,1,Potentiostatic EIS,64.0261,3.49912,-0.016807,223872,0.755045,85.3437,0.061293,-0.752553,1.24629,0.0130024,0.00981742,1360,0.0060749,3.49912
2,1,Potentiostatic EIS,64.439,3.49907,-0.0174956,199526,0.672588,85.0852,0.0576239,-0.670115,1.45287,0.0147482,0.00991954,1355,0.00679109,3.49907
2,1,Potentiostatic EIS,64.8741,3.49907,-0.0179291,177828,0.604705,84.6159,0.0567407,-0.602037,1.21262,0.0164735,0.00996165,1355,0.00761973,3.49907
2,1,Potentiostatic EIS,65.339,3.49902,-0.0188117,158489,0.542004,84.1428,0.0553112,-0.539175,1.45069,0.0184066,0.00997647,1360,0.00858103,3.49902
2,1,Potentiostatic EIS,65.8359,3.499,-0.0192265,141254,0.485506,84.0536,0.0502972,-0.482894,1.36372,0.020556,0.00998012,1355,0.00959267,3.499
2,1,Potentiostatic EIS,66.5905,3.49896,-0.0202241,125892,0.434694,83.4995,0.0492122,-0.431899,1.56427,0.022949,0.00997581,1370,0.0108823,3.49896
2,1,Potentiostatic EIS,67.1609,3.49893,-0.0208117,112202,0.389254,82.9889,0.0475128,-0.386344,1.60504,0.0255767,0.00995585,1360,0.012121,3.49893
2,1,Potentiostatic EIS,67.7281,3.4989,-0.0214102,99999.9,0.347913,82.5327,0.0452147,-0.344962,1.7359,0.0286234,0.0099585,1370,0.0137,3.4989
2,1,Potentiostatic EIS,68.3455,3.49883,-0.0227624,89125.1,0.312768,82.1325,0.0428122,-0.309824,1.48754,0.0319431,0.0099908,1365,0.0153156,3.49883
2,1,Potentiostatic EIS,69.0189,3.49882,-0.0230491,79432.8,0.280775,81.26,0.0426638,-0.277514,2.1048,0.0355813,0.00999026,1365,0.0171843,3.49882
2,1,Potentiostatic EIS,69.7405,3.49878,-0.0240222,70794.5,0.251035,80.7668,0.0402793,-0.247783,1.75378,0.039738,0.00997567,1370,0.0193518,3.49878
2,1,Potentiostatic EIS,69.9844,3.4987,-0.0255525,63095.7,0.224771,80.2144,0.0382026,-0.221501,1.89367,0.0444556,0.00999232,1290,0.0204451,3.4987
2,1,Potentiostatic EIS,70.2336,3.49869,-0.0258771,56234.1,0.203086,79.3075,0.0376801,-0.19956,1.94698,0.0492155,0.00999505,1150,0.0204502,3.49869
2,1,Potentiostatic EIS,70.4895,3.49867,-0.0260315,50118.7,0.180543,78.2569,0.0367448,-0.176765,1.90825,0.0546382,0.0098636,1025,0.0204515,3.49867
2,1,Potentiostatic EIS,70.7392,3.49866,-0.0261388,44668.3,0.16309,77.1584,0.0362478,-0.159011,1.6858,0.0603109,0.00983645,910,0.0203724,3.49866
2,1,Potentiostatic EIS,71.0797,3.49867,-0.0258651,39810.7,0.146984,76.5126,0.0342812,-0.14293,1.74003,0.0667048,0.00980425,815,0.0204719,3.49867
2,1,Potentiostatic EIS,71.4307,3.49908,-0.0154319,35481.3,0.132065,75.3032,0.0335054,-0.127744,4.06529,0.0740194,0.00977484,725,0.0204333,3.49908
2,1,Potentiostatic EIS,71.6495,3.49916,-0.0128204,31622.8,0.119653,74.0039,0.032973,-0.11502,4.65015,0.0839861,0.0100493,645,0.0203967,3.49916
2,1,Potentiostatic EIS,71.8676,3.49921,-0.0125441,28183.8,0.107005,72.8312,0.0315864,-0.102236,5.05686,0.0932041,0.00997327,575,0.0204018,3.49921
2,1,Potentiostatic EIS,72.0863,3.49949,-0.00348944,25118.8,0.0974022,71.0255,0.03167,-0.0921097,5.44118,0.103084,0.0100407,510,0.0203035,3.49949
2,1,Potentiostatic EIS,72.3061,3.49956,-0.00339984,22387.2,0.0875272,69.5179,0.0306271,-0.0819939,5.9133,0.113897,0.00996921,455,0.0203241,3.49956
2,1,Potentiostatic EIS,72.5293,3.49953,-0.00308451,19952.6,0.0798013,67.496,0.0305438,-0.0737247,6.09534,0.125951,0.0100511,405,0.0202981,3.49953
2,1,Potentiostatic EIS,72.729,3.49954,-0.00289316,17782.8,0.0723961,65.6163,0.0298884,-0.0659385,6.11226,0.134415,0.00973091,360,0.0202443,3.49954
2,1,Potentiostatic EIS,72.9343,3.49961,-0.00224271,15848.9,0.0656166,63.4611,0.0293178,-0.0587026,6.55977,0.148574,0.00974865,320,0.0201906,3.49961
2,1,Potentiostatic EIS,73.1384,3.49959,-0.00236358,14125.4,0.0604089,61.0093,0.0292783,-0.0528396,6.52743,0.162579,0.00982125,285,0.0201765,3.49959
2,1,Potentiostatic EIS,73.3408,3.49961,-0.00210692,12589.2,0.0552488,58.6045,0.0287815,-0.0471599,6.68978,0.17889,0.00988354,255,0.0202554,3.49961
2,1,Potentiostatic EIS,73.5443,3.49961,-0.00173127,11220.2,0.0509117,55.7896,0.0286242,-0.0421029,6.57414,0.193974,0.00987574,225,0.0200532,3.49961
2,1,Potentiostatic EIS,73.8036,3.4998,-0.00149695,9999.98,0.0472079,53.4094,0.0281403,-0.0379039,3.2185,0.21209,0.0100123,307,0.0307001,3.4998
2,1,Potentiostatic EIS,74.0153,3.49978,-0.00205534,8912.5,0.0439561,50.7435,0.0278151,-0.0340361,3.54421,0.239508,0.0105279,273,0.0306311,3.49978
2,1,Potentiostatic EIS,74.2265,3.49979,-0.00199197,7943.27,0.041025,48.2776,0.0273031,-0.0306202,3.88924,0.257452,0.010562,244,0.0307178,3.49979
2,1,Potentiostatic EIS,74.4365,3.4998,-0.00175642,7079.45,0.0378309,45.5947,0.0264714,-0.0270267,4.21944,0.277671,0.0105045,217,0.0306521,3.4998
2,1,Potentiostatic EIS,74.6495,3.49981,-0.00150228,6309.57,0.0353536,41.6123,0.0264323,-0.0234779,4.43731,0.296093,0.010468,193,0.0305885,3.49981
2,1,Potentiostatic EIS,74.8605,3.49983,-0.00120537,5623.41,0.0336735,37.7533,0.0266241,-0.0206171,4.50409,0.307418,0.0103519,172,0.0305864,3.49983
2,1,Potentiostatic EIS,75.0708,3.49985,-0.000720505,5011.87,0.0324122,34.3121,0.0267718,-0.0182708,4.47869,0.317176,0.0102804,153,0.0305276,3.49985
2,1,Potentiostatic EIS,75.2822,3.49983,-0.000995411,4466.83,0.0313458,31.0729,0.026848,-0.0161784,4.40042,0.325036,0.0101885,137,0.0306705,3.49983
2,1,Potentiostatic EIS,75.4942,3.49984,-0.000864156,3981.07,0.0304708,28.0386,0.0268945,-0.0143233,4.27866,0.33257,0.0101337,122,0.0306451,3.49984
2,1,Potentiostatic EIS,75.6672,3.49987,-0.000108854,3548.13,0.0296786,25.1234,0.0268709,-0.0126006,4.20922,0.311706,0.00925101,108,0.0304386,3.49987
2,1,Potentiostatic EIS,75.837,3.49986,-0.000207373,3162.27,0.0291335,22.3876,0.0269377,-0.0110961,3.8979,0.35077,0.0102192,97,0.0306742,3.49986
2,1,Potentiostatic EIS,76.0044,3.49986,-2.66458e-05,2818.38,0.0286622,19.8505,0.0269592,-0.00973277,3.79406,0.366042,0.0104916,86,0.030514,3.49986
2,1,Potentiostatic EIS,76.1721,3.49983,-0.000917398,2511.88,0.0282752,17.4798,0.0269695,-0.00849299,3.65368,0.366687,0.0103681,77,0.0306543,3.49983
2,1,Potentiostatic EIS,76.3392,3.49986,-2.18807e-05,2238.72,0.0280247,15.2382,0.0270394,-0.00736581,3.23886,0.367121,0.0102884,68,0.0303745,3.49986
2,1,Potentiostatic EIS,76.5052,3.49988,0.000151058,1995.26,0.0278206,13.1767,0.0270881,-0.00634182,3.17652,0.366465,0.0101953,61,0.0305725,3.49988
2,1,Potentiostatic EIS,76.6728,3.49988,0.000535108,1778.28,0.027688,11.2759,0.0271536,-0.00541395,3.00769,0.365931,0.0101319,54,0.0303664,3.49988
2,1,Potentiostatic EIS,76.7964,3.49988,0.000378336,1584.89,0.027618,9.52863,0.0272369,-0.00457189,3.01939,0.324146,0.00895227,48,0.030286,3.49988
2,1,Potentiostatic EIS,76.922,3.49988,4.56666e-05,1412.53,0.0275823,7.96823,0.027316,-0.00382356,2.77333,0.356987,0.00984651,43,0.0304417,3.49988
2,1,Potentiostatic EIS,77.0449,3.49987,0.000259105,1258.92,0.0276011,6.51683,0.0274228,-0.00313259,2.64279,0.374025,0.0103235,38,0.0301845,3.49987
2,1,Potentiostatic EIS,77.1689,3.49987,0.000244442,1122.02,0.0276255,5.21443,0.0275112,-0.0025107,2.51418,0.37302,0.0103049,34,0.0303026,3.49987
2,1,Potentiostatic EIS,77.2921,3.49988,6.25022e-05,999.999,0.0277212,3.9829,0.0276543,-0.00192548,2.34595,0.369479,0.0102424,30,0.03,3.49988
2,1,Potentiostatic EIS,77.4154,3.49987,0.000146325,891.25,0.0278323,2.89261,0.0277969,-0.00140454,2.22895,0.365391,0.0101697,27,0.0302945,3.49987
2,1,Potentiostatic EIS,77.5375,3.49989,0.000616531,794.328,0.0279599,1.91763,0.0279443,-0.000935614,2.18757,0.361993,0.0101213,24,0.0302142,3.49989
2,1,Potentiostatic EIS,77.6601,3.49991,0.000923395,707.945,0.0281033,1.03216,0.0280987,-0.000506242,2.10375,0.358663,0.0100796,21,0.0296633,3.49991
2,1,Potentiostatic EIS,77.7827,3.4999,0.000514826,630.956,0.0282841,0.230529,0.0282838,-0.0001138,2.05832,0.356116,0.0100724,19,0.030113,3.4999
2,1,Potentiostatic EIS,77.9061,3.49991,0.00100261,562.34,0.0284476,-0.497101,0.0284465,0.000246809,2.00326,0.353758,0.0100635,17,0.0302308,3.49991
2,1,Potentiostatic EIS,78.0295,3.49991,0.000889306,501.185,0.0286519,-1.16988,0.0286459,0.000584979,1.9581,0.349949,0.0100267,15,0.029929,3.49991
2,1,Potentiostatic EIS,78.1084,3.49991,0.000842677,446.683,0.0288773,-1.7494,0.0288638,0.000881568,1.94747,0.295641,0.0085373,13,0.0291034,3.49991
2,1,Potentiostatic EIS,78.1885,3.49991,0.000843321,398.107,0.0290921,-2.29601,0.0290687,0.00116549,1.86234,0.303516,0.00882991,12,0.0301427,3.49991
2,1,Potentiostatic EIS,78.2672,3.4999,0.000777453,354.813,0.0293148,-2.75758,0.0292809,0.00141035,1.80441,0.309165,0.00906312,10,0.0281839,3.4999
2,1,Potentiostatic EIS,78.3463,3.49991,0.000906362,316.227,0.0295751,-3.12848,0.029531,0.00161407,1.72959,0.313412,0.00926918,9,0.0284606,3.49991
2,1,Potentiostatic EIS,78.4254,3.49991,0.000755677,281.838,0.0298144,-3.49755,0.0297589,0.00181886,1.64986,0.315867,0.00941741,8,0.0283851,3.49991
2,1,Potentiostatic EIS,78.5063,3.49991,0.000746089,251.188,0.0300897,-3.81191,0.0300231,0.0020004,1.5382,0.317339,0.00954863,8,0.0318487,3.49991
2,1,Potentiostatic EIS,78.5908,3.49991,0.000720153,223.872,0.0303598,-4.09328,0.0302823,0.00216709,1.43028,0.317483,0.0096387,8,0.0357347,3.49991
2,1,Potentiostatic EIS,78.678,3.49992,0.000986158,199.526,0.03063,-4.27429,0.0305448,0.00228289,1.36815,0.317158,0.00971456,8,0.0400951,3.49992
2,1,Potentiostatic EIS,78.7716,3.49991,0.00116702,177.828,0.0309094,-4.44216,0.0308165,0.00239401,1.2362,0.31624,0.00977478,8,0.0449874,3.49991
2,1,Potentiostatic EIS,78.8704,3.49992,0.00119636,158.489,0.0311477,-4.602,0.0310473,0.0024991,1.15661,0.314827,0.00980614,8,0.0504767,3.49992
2,1,Potentiostatic EIS,78.9751,3.49992,0.00105698,141.253,0.031434,-4.69357,0.0313285,0.00257214,1.05668,0.313015,0.00983931,8,0.0566359,3.49992
2,1,Potentiostatic EIS,79.0883,3.49992,0.000947126,125.892,0.0317157,-4.80266,0.0316044,0.00265537,0.967668,0.311086,0.00986632,8,0.0635464,3.49992
2,1,Potentiostatic EIS,79.2082,3.49991,0.000761504,112.201,0.0319953,-4.81986,0.0318822,0.00268835,0.895416,0.308953,0.00988507,8,0.0713003,3.49991
2,1,Potentiostatic EIS,79.3371,3.49991,0.000813461,99.9997,0.0322417,-4.84131,0.0321267,0.00272108,0.798325,0.306823,0.0098925,8,0.0800003,3.49991
2,1,Potentiostatic EIS,79.4766,3.49991,0.000847212,89.1248,0.0325146,-4.81333,0.0323999,0.00272829,0.724295,0.304537,0.00990191,8,0.0897617,3.49991
2,1,Potentiostatic EIS,79.6272,3.4999,0.000755371,79.4325,0.0327594,-4.77442,0.0326457,0.00272666,0.659781,0.302265,0.00990202,8,0.100714,3.4999
2,1,Potentiostatic EIS,79.7909,3.49992,0.00109111,70.7943,0.0330186,-4.70679,0.0329073,0.0027094,0.589654,0.300108,0.00990916,8,0.113003,3.49992
2,1,Potentiostatic EIS,79.9695,3.49991,0.00123424,63.0956,0.0332699,-4.64403,0.0331606,0.00269369,0.528221,0.297927,0.00991198,8,0.126792,3.49991
2,1,Potentiostatic EIS,80.1655,3.49992,0.00151055,56.2341,0.0335198,-4.58508,0.0334125,0.00267955,0.463484,0.28839,0.00966676,8,0.142263,3.49992
2,1,Potentiostatic EIS,80.3785,3.49993,0.00111695,50.1186,0.0337314,-4.46162,0.0336292,0.00262401,0.416286,0.287284,0.0096905,8,0.159621,3.49993
2,1,Potentiostatic EIS,80.6133,3.49992,0.000831718,44.6682,0.0339591,-4.33253,0.033862,0.00256543,0.373257,0.286205,0.00971926,8,0.179098,3.49992
2,1,Potentiostatic EIS,80.8708,3.49991,0.000821978,39.8106,0.0341669,-4.19759,0.0340752,0.00250089,0.337913,0.285031,0.00973863,8,0.200952,3.49991
2,1,Potentiostatic EIS,81.1547,3.49992,0.00141782,35.4812,0.0343698,-4.07922,0.0342828,0.00244492,0.299563,0.284095,0.0097643,8,0.225471,3.49992
2,1,Potentiostatic EIS,81.2971,3.49991,0.000510252,31.6227,0.0345497,-3.95434,0.0344674,0.0023826,0.278128,0.286091,0.00988436,2,0.0632458,3.49991
2,1,Potentiostatic EIS,81.4423,3.4999,0.000593005,28.1838,0.0347556,-3.78278,0.0346799,0.00229297,0.320549,0.284936,0.00990313,2,0.0709628,3.4999
2,1,Potentiostatic EIS,81.6049,3.49991,0.000625032,25.1188,0.0349157,-3.64208,0.0348452,0.00221797,0.257318,0.276274,0.00964626,2,0.0796217,3.49991
2,1,Potentiostatic EIS,81.7864,3.49992,0.000959364,22.3871,0.0350843,-3.45398,0.0350205,0.00211372,0.243978,0.276378,0.00969664,2,0.0893371,3.49992
2,1,Potentiostatic EIS,81.9867,3.49991,0.000962849,19.9525,0.0352239,-3.31112,0.0351651,0.00203445,0.239438,0.276724,0.0097473,2,0.100238,3.49991
2,1,Potentiostatic EIS,82.2091,3.49992,0.000799973,17.7828,0.0353772,-3.17273,0.035323,0.001958,0.227177,0.276627,0.00978632,2,0.112468,3.49992
2,1,Potentiostatic EIS,82.4561,3.49992,0.000155814,15.8489,0.0355051,-3.00561,0.0354562,0.00186166,0.185667,0.276674,0.00982338,2,0.126192,3.49992
2,1,Potentiostatic EIS,82.7312,3.49993,0.000461381,14.1253,0.0356235,-2.86966,0.0355788,0.00178346,0.192994,0.276422,0.00984706,2,0.14159,3.49993
2,1,Potentiostatic EIS,83.038,3.49992,0.00049061,12.5892,0.0357394,-2.72544,0.035699,0.00169941,0.19825,0.275997,0.00986397,2,0.158866,3.49992
2,1,Potentiostatic EIS,83.3802,3.49991,0.000263885,11.2201,0.0358493,-2.60255,0.0358124,0.00162783,0.204933,0.275899,0.00989082,2,0.178251,3.49991
2,1,Potentiostatic EIS,83.762,3.49991,0.000341501,9.99996,0.0359344,-2.46517,0.0359012,0.00154561,0.195454,0.27521,0.00988952,2,0.200001,3.49991
2,1,Potentiostatic EIS,84.188,3.4999,9.51143e-05,8.91248,0.0360144,-2.36034,0.0359838,0.00148322,0.211085,0.275174,0.00991019,2,0.224404,3.4999
2,1,Potentiostatic EIS,84.6635,3.49991,0.000148252,7.94325,0.0361053,-2.23297,0.0360779,0.00140677,0.187666,0.274567,0.00991332,2,0.251786,3.49991
2,1,Potentiostatic EIS,85.1953,3.49991,0.000113541,7.07944,0.0361882,-2.14057,0.0361629,0.00135168,0.19839,0.274041,0.00991706,2,0.282508,3.49991
2,1,Potentiostatic EIS,85.7891,3.49991,0.000110306,6.30955,0.0362452,-2.07392,0.0362215,0.00131167,0.175743,0.273934,0.00992881,2,0.31698,3.49991
2,1,Potentiostatic EIS,86.4529,3.49991,0.000122042,5.62339,0.0363191,-1.95741,0.0362979,0.00124054,0.172433,0.273431,0.00993077,2,0.355657,3.49991
2,1,Potentiostatic EIS,87.1965,3.49992,-1.06994e-05,5.01185,0.0363808,-1.9092,0.0363606,0.00121205,0.190871,0.273171,0.00993816,2,0.399054,3.49992
2,1,Potentiostatic EIS,88.0257,3.49991,-0.000265543,4.46682,0.0364239,-1.8155,0.0364056,0.00115395,0.173506,0.272958,0.0099422,2,0.447745,3.49991
2,1,Potentiostatic EIS,88.9538,3.49991,-9.4508e-05,3.98106,0.0364836,-1.761,0.0364663,0.00112115,0.18701,0.272454,0.00994011,2,0.502378,3.49991
2,1,Potentiostatic EIS,89.9933,3.49991,-0.000175033,3.54812,0.0365317,-1.71254,0.0365154,0.00109175,0.197281,0.272194,0.00994369,2,0.563679,3.49991
2,1,Potentiostatic EIS,91.159,3.4999,-0.000362531,3.16227,0.0365773,-1.67383,0.0365617,0.00106841,0.174403,0.271847,0.00994341,2,0.632458,3.4999
2,1,Potentiostatic EIS,92.4653,3.4999,-0.000309928,2.81837,0.0366268,-1.62892,0.036612,0.00104116,0.176827,0.271618,0.00994851,2,0.70963,3.4999
2,1,Potentiostatic EIS,93.9285,3.49991,-0.000134775,2.51188,0.0366648,-1.5966,0.0366505,0.00102156,0.171953,0.27144,0.00995229,2,0.796217,3.49991
2,1,Potentiostatic EIS,95.5691,3.49991,-0.000403799,2.23872,0.0366909,-1.60601,0.0366765,0.00102832,0.166332,0.271147,0.0099486,2,0.893369,3.49991
2,1,Potentiostatic EIS,97.4066,3.49991,-0.000306832,1.99526,0.036729,-1.58625,0.036715,0.00101673,0.210571,0.2711,0.00995725,2,1.00238,3.49991
2,1,Potentiostatic EIS,99.467,3.4999,-0.000363191,1.77827,0.0367574,-1.5766,0.0367435,0.00101132,0.19371,0.270732,0.00995142,2,1.12469,3.4999
2,1,Potentiostatic EIS,101.777,3.49991,-0.000479116,1.58489,0.0367889,-1.56694,0.0367751,0.00100599,0.177498,0.270355,0.00994604,2,1.26192,3.49991
2,1,Potentiostatic EIS,104.366,3.49991,-0.000228397,1.41253,0.0368042,-1.5814,0.0367901,0.00101569,0.162824,0.270328,0.00994919,2,1.4159,3.49991
2,1,Potentiostatic EIS,107.271,3.49991,-0.000199805,1.25892,0.0368346,-1.5878,0.0368205,0.00102065,0.19087,0.270344,0.00995801,2,1.58866,3.49991
2,1,Potentiostatic EIS,110.527,3.49991,-0.000369605,1.12202,0.0368779,-1.62789,0.036863,0.00104764,0.165563,0.269788,0.0099492,2,1.78251,3.49991
2,1,Potentiostatic EIS,114.179,3.4999,-0.00026009,0.999995,0.0369088,-1.64685,0.0368936,0.00106073,0.18079,0.269466,0.00994567,2,2.00001,3.4999
2,1,Potentiostatic EIS,118.275,3.49991,-0.000156253,0.891248,0.0369419,-1.67303,0.0369262,0.00107855,0.191511,0.26954,0.00995731,2,2.24404,3.49991
2,1,Potentiostatic EIS,122.869,3.49991,-0.000349364,0.794324,0.0369531,-1.71086,0.0369366,0.00110326,0.181115,0.26929,0.00995108,2,2.51786,3.49991
2,1,Potentiostatic EIS,128.023,3.49991,-0.000112664,0.707944,0.0369714,-1.77777,0.0369536,0.00114696,0.189411,0.269203,0.0099528,2,2.82508,3.49991
2,1,Potentiostatic EIS,133.802,3.49991,-0.000239378,0.630955,0.0369972,-1.83542,0.0369782,0.00118497,0.1453,0.26906,0.00995446,2,3.1698,3.49991
2,1,Potentiostatic EIS,140.287,3.4999,-0.000414275,0.562339,0.0370229,-1.8879,0.0370028,0.00121969,0.201912,0.268762,0.00995035,2,3.55657,3.4999
2,1,Potentiostatic EIS,147.561,3.49991,7.47462e-06,0.501186,0.0370685,-1.95305,0.037047,0.00126332,0.137712,0.268529,0.00995396,2,3.99054,3.49991
2,1,Potentiostatic EIS,155.721,3.49991,-0.000448196,0.446681,0.0370969,-2.04965,0.0370731,0.00132679,0.205814,0.268206,0.00994958,2,4.47747,3.49991
2,1,Potentiostatic EIS,164.875,3.49991,-0.000458708,0.398106,0.0371628,-2.13057,0.0371371,0.0013816,0.212971,0.267899,0.00995588,2,5.02379,3.49991
2,1,Potentiostatic EIS,175.144,3.49992,-9.70142e-05,0.354812,0.0371669,-2.25277,0.0371382,0.00146096,0.153914,0.267709,0.00994989,2,5.63679,3.49992
2,1,Potentiostatic EIS,186.659,3.49991,-0.000479585,0.316226,0.0371964,-2.33341,0.0371656,0.00151443,0.172537,0.267573,0.00995273,2,6.32458,3.49991
2,1,Potentiostatic EIS,199.579,3.49991,-0.000377387,0.281837,0.0372644,-2.4356,0.0372307,0.0015836,0.158941,0.2671,0.0099533,2,7.09631,3.49991
2,1,Potentiostatic EIS,214.074,3.49991,-0.0002204,0.251188,0.0372954,-2.59615,0.0372571,0.00168933,0.187082,0.266886,0.00995361,2,7.96218,3.49991
2,1,Potentiostatic EIS,230.338,3.49992,-0.000492287,0.223871,0.0373383,-2.70591,0.0372967,0.00176272,0.163085,0.26664,0.00995588,2,8.9337,3.49992
2,1,Potentiostatic EIS,248.581,3.49992,8.02216e-05,0.199525,0.0373948,-2.84563,0.0373487,0.00185647,0.192873,0.266212,0.00995493,2,10.0238,3.49992
2,1,Potentiostatic EIS,269.048,3.49991,-0.000274414,0.177827,0.0374242,-3.03309,0.0373718,0.00198022,0.184578,0.265998,0.00995475,2,11.2469,3.49991
2,1,Potentiostatic EIS,292.019,3.49992,-0.000360668,0.158489,0.0374497,-3.17416,0.0373923,0.00207364,0.184124,0.265841,0.00995566,2,12.6192,3.49992
2,1,Potentiostatic EIS,317.784,3.49992,0.000135009,0.141253,0.0374992,-3.39122,0.0374335,0.0022182,0.173643,0.265464,0.00995465,2,14.159,3.49992
2,1,Potentiostatic EIS,346.696,3.49992,-0.000317171,0.125892,0.0375656,-3.59558,0.0374916,0.00235587,0.186516,0.264983,0.00995422,2,15.8867,3.49992
2,1,Potentiostatic EIS,379.129,3.49992,-0.000232126,0.112201,0.0376508,-3.78097,0.0375688,0.00248278,0.169379,0.264411,0.00995525,2,17.8251,3.49992
2,1,Potentiostatic EIS,415.521,3.49991,2.68982e-05,0.0999997,0.0377472,-4.02761,0.037654,0.00265126,0.164632,0.263596,0.00994999,2,20.0001,3.49991
2,1,Potentiostatic EIS,456.349,3.49991,-0.000382258,0.0891246,0.0377429,-4.29629,0.0376368,0.00282747,0.191821,0.263762,0.00995509,2,22.4405,3.49991
2,1,Potentiostatic EIS,502.149,3.49991,-7.08706e-05,0.0794325,0.037826,-4.56648,0.0377059,0.00301155,0.180329,0.263138,0.00995347,2,25.1786,3.49991
2,1,Potentiostatic EIS,553.548,3.49992,0.000242638,0.0707942,0.0379428,-4.86976,0.0378058,0.00322101,0.168647,0.262377,0.00995531,2,28.2509,3.49992
2,1,Potentiostatic EIS,611.205,3.49991,-0.000277308,0.0630955,0.0380372,-5.17591,0.0378821,0.00343148,0.182385,0.261832,0.00995929,2,31.698,3.49991
2,1,Potentiostatic EIS,675.893,3.4999,0.000167603,0.0562339,0.0381784,-5.54086,0.0380001,0.00368634,0.151056,0.260842,0.00995852,2,35.5657,3.4999
2,1,Potentiostatic EIS,748.476,3.49991,-1.4934e-06,0.0501185,0.0383747,-5.90032,0.0381714,0.00394484,0.18667,0.259501,0.00995832,2,39.9054,3.49991
2,1,Potentiostatic EIS,821.228,3.4999,0.000176391,0.05,0.038227,-5.93218,0.0380223,0.0039508,0.144407,0.260511,0.00995847,2,40,3.4999