File: Data/P190_04/EIS_06_P190_04_4/2_EIS_06_P190_04_4 20231012 112849.csv
Step number,Repeats,Step name,Elapsed Time  (s),DC Working Electrode (V),DC Current (A),Frequency (Hz),|Z| (Ohms),Phase (deg),Z' (Ohms),-Z" (Ohms),THD (%),Amplitude (A),Amplitude (V),No of Cycles,Duration of Each Frequency (s),IR Compensated DC Working Electrode (V)
2,1,Potentiostatic EIS,60.2982,3.50182,-0.0123504,1000000,3.15114,88.2828,0.0944292,-3.14972,1.0524,0.003155,0.00994134,1430,0.00143,3.50182
2,1,Potentiostatic EIS,60.5237,3.50179,-0.0129667,891251,2.81278,88.2397,0.0864038,-2.81145,1.09519,0.00349913,0.0098424,1310,0.00146984,3.50179
2,1,Potentiostatic EIS,60.755,3.50179,-0.0131042,794328,2.52304,88.0713,0.0849127,-2.52161,1.21493,0.00393345,0.00992441,1445,0.00181915,3.50179
2,1,Potentiostatic EIS,60.992,3.50177,-0.0137129,707946,2.25266,88.1768,0.0716711,-2.25152,1.0262,0.00439381,0.00989793,1340,0.0018928,3.50177
2,1,Potentiostatic EIS,61.2326,3.50173,-0.0144899,630957.25,2.01289,87.6342,0.0830911,-2.01118,1.00505,0.00484368,0.00974958,1355,0.00214753,3.50173
2,1,Potentiostatic EIS,61.4974,3.50171,-0.0152184,562341.25,1.79637,87.5357,0.0772391,-1.79471,1.03606,0.00554905,0.00996818,1360,0.00241846,3.50171
2,1,Potentiostatic EIS,61.7643,3.50171,-0.0149329,501187,1.60743,87.5909,0.0675673,-1.60601,0.987025,0.00619809,0.00996303,1385,0.00276344,3.50171
2,1,Potentiostatic EIS,62.0423,3.50169,-0.0152672,446684,1.43229,87.1824,0.0704069,-1.43056,1.04599,0.00693871,0.00993829,1360,0.00304466,3.50169
2,1,Potentiostatic EIS,62.3169,3.50166,-0.0159344,398107,1.28375,86.8529,0.0704782,-1.28181,1.23354,0.0077629,0.00996563,1400,0.00351664,3.50166
2,1,Potentiostatic EIS,62.6093,3.50164,-0.0162054,354813,1.1449,86.7912,0.0640853,-1.1431,1.1282,0.00866776,0.00992369,1365,0.00384709,3.50164
2,1,Potentiostatic EIS,62.9127,3.50163,-0.016387,316228,1.02272,86.4694,0.0629809,-1.02078,1.09251,0.00972015,0.00994097,1370,0.00433232,3.50163
2,1,Potentiostatic EIS,63.2264,3.50159,-0.0175229,281838.25,0.917247,86.0388,0.0633641,-0.915056,1.00279,0.0108455,0.00994804,1370,0.00486094,3.50159
2,1,Potentiostatic EIS,63.7122,3.50156,-0.0176335,251189,0.820215,85.735,0.0609992,-0.817943,1.11431,0.012167,0.00997954,1340,0.00533464,3.50156
2,1,Potentiostatic EIS,64.0654,3.50154,-0.0182894,223872,0.733033,85.8059,0.0536106,-0.73107,1.28601,0.0132979,0.00974768,1360,0.0060749,3.50154
2,1,Potentiostatic EIS,64.4751,3.50151,-0.0191411,199526,0.654841,85.5922,0.050328,-0.652904,1.13119,0.0151617,0.0099285,1355,0.00679109,3.50151
2,1,Potentiostatic EIS,64.9129,3.50151,-0.0196282,177828,0.587303,85.1088,0.0500756,-0.585164,1.26742,0.0169568,0.00995878,1355,0.00761973,3.50151
2,1,Potentiostatic EIS,65.3779,3.50144,-0.0210052,158489,0.526504,84.7343,0.0483197,-0.524282,1.32532,0.0189359,0.00996983,1360,0.00858103,3.50144
2,1,Potentiostatic EIS,65.8746,3.50142,-0.0211535,141254,0.471474,84.6804,0.0437108,-0.469443,1.41134,0.0211814,0.00998648,1355,0.00959267,3.50142
2,1,Potentiostatic EIS,66.6334,3.50136,-0.0226061,125892,0.422617,84.0344,0.0439228,-0.420329,1.45723,0.0236225,0.00998331,1370,0.0108823,3.50136
2,1,Potentiostatic EIS,67.2058,3.50133,-0.0232572,112202,0.378619,83.5729,0.042382,-0.376239,1.42277,0.0263937,0.0099932,1360,0.012121,3.50133
2,1,Potentiostatic EIS,67.7724,3.50131,-0.023344,99999.9,0.337649,83.2073,0.0399363,-0.335279,1.85325,0.0295079,0.00996331,1370,0.0137,3.50131
2,1,Potentiostatic EIS,68.3864,3.50128,-0.0244903,89125.1,0.303916,82.8231,0.0379693,-0.301535,1.54997,0.0328497,0.00998358,1365,0.0153156,3.50128
2,1,Potentiostatic EIS,69.0588,3.50124,-0.0255346,79432.8,0.271977,82.1788,0.0370114,-0.269447,1.90567,0.0367976,0.0100081,1365,0.0171843,3.50124
2,1,Potentiostatic EIS,69.7877,3.50118,-0.0266353,70794.5,0.243683,81.699,0.0351811,-0.24113,1.67308,0.0408822,0.00996231,1370,0.0193518,3.50118
2,1,Potentiostatic EIS,70.034,3.50113,-0.0281417,63095.7,0.218509,81.1546,0.0335997,-0.21591,1.63209,0.0457326,0.00999306,1290,0.0204451,3.50113
2,1,Potentiostatic EIS,70.2851,3.50105,-0.0291547,56234.1,0.196799,80.4424,0.0326762,-0.194067,1.82848,0.0504596,0.00993046,1150,0.0204502,3.50105
2,1,Potentiostatic EIS,70.5395,3.50112,-0.0290019,50118.7,0.175441,80.2201,0.0298011,-0.172891,1.8836,0.0562592,0.00987412,1025,0.0204515,3.50112
2,1,Potentiostatic EIS,70.8762,3.50111,-0.0283023,44668.3,0.157721,78.6846,0.0309464,-0.154655,1.79076,0.0618971,0.00976241,910,0.0203724,3.50111
2,1,Potentiostatic EIS,71.2297,3.50148,-0.0165697,39810.7,0.141806,78.0364,0.0293949,-0.138726,3.70268,0.0686615,0.00973668,815,0.0204719,3.50148
2,1,Potentiostatic EIS,71.4498,3.50161,-0.0141015,35481.3,0.127156,76.9504,0.0287113,-0.123872,4.34129,0.078492,0.00998076,725,0.0204333,3.50161
2,1,Potentiostatic EIS,71.6702,3.50154,-0.0139314,31622.8,0.114825,75.6659,0.0284279,-0.111251,4.84006,0.0874309,0.0100392,645,0.0203967,3.50154
2,1,Potentiostatic EIS,71.8886,3.50161,-0.0138703,28183.8,0.102769,74.8143,0.0269201,-0.0991802,5.37383,0.096896,0.00995785,575,0.0204018,3.50161
2,1,Potentiostatic EIS,72.1098,3.50191,-0.00438976,25118.8,0.0934496,73.2027,0.0270057,-0.0894625,5.64735,0.107669,0.0100617,510,0.0203035,3.50191
2,1,Potentiostatic EIS,72.3334,3.50191,-0.00447094,22387.2,0.0834643,71.7744,0.0261042,-0.0792771,6.04096,0.119576,0.00998038,455,0.0203241,3.50191
2,1,Potentiostatic EIS,72.5538,3.50193,-0.00338983,19952.6,0.0761018,70.0154,0.0260091,-0.0715193,6.29865,0.132385,0.0100748,405,0.0202981,3.50193
2,1,Potentiostatic EIS,72.7759,3.50198,-0.0027367,17782.8,0.068745,68.4421,0.0252598,-0.0639361,6.39239,0.145855,0.0100268,360,0.0202443,3.50198
2,1,Potentiostatic EIS,72.9963,3.502,-0.00290406,15848.9,0.0620427,66.3345,0.0249037,-0.0568252,6.72668,0.160893,0.0099823,320,0.0201906,3.502
2,1,Potentiostatic EIS,73.1994,3.50199,-0.00283797,14125.4,0.0568393,64.039,0.0248819,-0.0511038,6.73211,0.170929,0.00971503,285,0.0201765,3.50199
2,1,Potentiostatic EIS,73.4051,3.502,-0.00241922,12589.2,0.0516909,61.8744,0.0243674,-0.045587,6.72235,0.188335,0.00973555,255,0.0202554,3.502
2,1,Potentiostatic EIS,73.6068,3.502,-0.00206106,11220.2,0.0474215,59.2338,0.0242578,-0.0407475,6.76366,0.205111,0.00972593,225,0.0200532,3.502
2,1,Potentiostatic EIS,73.8671,3.50221,-0.00176943,9999.98,0.0437183,57.0368,0.0237871,-0.0366805,3.28734,0.230644,0.0100834,307,0.0307001,3.50221
2,1,Potentiostatic EIS,74.082,3.5022,-0.00201174,8912.5,0.0404369,54.5276,0.023466,-0.0329316,3.64744,0.236671,0.00957024,273,0.0306311,3.5022
2,1,Potentiostatic EIS,74.2928,3.50218,-0.00246273,7943.27,0.0374911,52.1797,0.022989,-0.0296156,3.99676,0.270559,0.0101435,244,0.0307178,3.50218
2,1,Potentiostatic EIS,74.5041,3.50219,-0.00234176,7079.45,0.0344091,49.6284,0.0222882,-0.0262149,4.30308,0.307243,0.010572,217,0.0306521,3.50219
2,1,Potentiostatic EIS,74.7147,3.5022,-0.00232196,6309.57,0.0317304,45.8185,0.022114,-0.0227551,4.54125,0.332714,0.0105572,193,0.0305885,3.5022
2,1,Potentiostatic EIS,74.9257,3.50222,-0.00175868,5623.41,0.0299091,41.7649,0.0223087,-0.0199217,4.63231,0.348639,0.0104275,172,0.0305864,3.50222
2,1,Potentiostatic EIS,75.1362,3.50223,-0.00168094,5011.87,0.028544,38.0359,0.022482,-0.0175876,4.62522,0.363063,0.0103633,153,0.0305276,3.50223
2,1,Potentiostatic EIS,75.3462,3.50223,-0.00132654,4466.83,0.0274179,34.5306,0.0225875,-0.0155417,4.56659,0.375145,0.0102857,137,0.0306705,3.50223
2,1,Potentiostatic EIS,75.5579,3.50223,-0.00148463,3981.07,0.0264882,31.2843,0.0226368,-0.0137549,4.42864,0.386292,0.0102322,122,0.0306451,3.50223
2,1,Potentiostatic EIS,75.7683,3.50226,-0.00103948,3548.13,0.0256905,28.1285,0.0226563,-0.0121118,4.23748,0.394213,0.0101275,108,0.0304386,3.50226
2,1,Potentiostatic EIS,75.9348,3.50227,-9.92492e-05,3162.27,0.0250521,25.123,0.0226821,-0.0106362,4.22593,0.349533,0.00875654,97,0.0306742,3.50227
2,1,Potentiostatic EIS,76.1023,3.50226,-0.000496851,2818.38,0.0245391,22.2415,0.0227133,-0.00928833,3.91812,0.393387,0.00965335,86,0.030514,3.50226
2,1,Potentiostatic EIS,76.2711,3.50226,-0.000486571,2511.88,0.0241595,19.5393,0.0227682,-0.00808021,3.75461,0.433436,0.0104716,77,0.0306543,3.50226
2,1,Potentiostatic EIS,76.438,3.50224,-0.00103996,2238.72,0.0239255,17.0027,0.0228798,-0.00699622,3.35871,0.433677,0.0103759,68,0.0303745,3.50224
2,1,Potentiostatic EIS,76.6044,3.50229,-0.000230916,1995.26,0.0236844,14.7207,0.022907,-0.00601839,3.29332,0.434572,0.0102926,61,0.0305725,3.50229
2,1,Potentiostatic EIS,76.7715,3.50228,4.56955e-05,1778.28,0.0235529,12.4897,0.0229955,-0.00509365,3.0543,0.43318,0.0102026,54,0.0303664,3.50228
2,1,Potentiostatic EIS,76.9382,3.50229,0.000107034,1584.89,0.0234684,10.5241,0.0230736,-0.0042865,2.89486,0.431486,0.0101263,48,0.030286,3.50229
2,1,Potentiostatic EIS,77.062,3.50229,0.000211563,1412.53,0.0234331,8.7045,0.0231632,-0.00354633,2.77509,0.367195,0.00860453,43,0.0304417,3.50229
2,1,Potentiostatic EIS,77.1845,3.50229,3.8569e-05,1258.92,0.023416,7.05985,0.0232385,-0.00287797,2.54876,0.387924,0.00908364,38,0.0301845,3.50229
2,1,Potentiostatic EIS,77.308,3.5023,0.000451383,1122.02,0.0234792,5.50606,0.0233709,-0.00225286,2.41899,0.428613,0.0100635,34,0.0303026,3.5023
2,1,Potentiostatic EIS,77.4314,3.50229,0.000312495,999.999,0.0235635,4.14465,0.0235019,-0.00170305,2.31459,0.436592,0.0102876,30,0.03,3.50229
2,1,Potentiostatic EIS,77.5544,3.50229,5.31398e-05,891.25,0.0236844,2.866,0.0236548,-0.00118423,2.22323,0.431376,0.0102169,27,0.0302945,3.50229
2,1,Potentiostatic EIS,77.6776,3.50232,0.000774881,794.328,0.0238146,1.7385,0.0238037,-0.000722485,2.10903,0.426974,0.0101682,24,0.0302142,3.50232
2,1,Potentiostatic EIS,77.7995,3.50231,0.000991146,707.945,0.0239569,0.696417,0.0239551,-0.000291183,2.07976,0.422605,0.0101243,21,0.0296633,3.50231
2,1,Potentiostatic EIS,77.9234,3.50229,0.000498714,630.956,0.0241533,-0.264354,0.024153,0.000111439,1.99782,0.417868,0.0100929,19,0.030113,3.50229
2,1,Potentiostatic EIS,78.0462,3.50229,0.00025998,562.34,0.0243286,-1.06755,0.0243244,0.00045327,1.9529,0.413559,0.0100613,17,0.0302308,3.50229
2,1,Potentiostatic EIS,78.1684,3.5023,0.000337984,501.185,0.0245537,-1.89157,0.0245403,0.00081047,1.91465,0.408925,0.0100406,15,0.029929,3.5023
2,1,Potentiostatic EIS,78.2906,3.50231,0.000425999,446.683,0.0247754,-2.48208,0.0247521,0.00107295,1.87404,0.405223,0.0100395,13,0.0291034,3.50231
2,1,Potentiostatic EIS,78.37,3.50232,0.000930271,398.107,0.0250081,-3.1169,0.0249711,0.00135978,1.8677,0.344438,0.00861376,12,0.0301427,3.50232
2,1,Potentiostatic EIS,78.4496,3.50231,0.000844428,354.813,0.0252842,-3.66365,0.0252326,0.00161564,1.7983,0.352503,0.00891277,10,0.0281839,3.50231
2,1,Potentiostatic EIS,78.5289,3.50231,0.00088673,316.227,0.0255153,-4.15598,0.0254482,0.00184914,1.70883,0.35826,0.0091411,9,0.0284606,3.50231
2,1,Potentiostatic EIS,78.6071,3.50232,0.00116806,281.838,0.0257951,-4.55145,0.0257138,0.00204695,1.67604,0.361667,0.00932925,8,0.0283851,3.50232
2,1,Potentiostatic EIS,78.687,3.50231,0.00118869,251.188,0.0260576,-4.89991,0.0259624,0.00222572,1.56869,0.363779,0.00947921,8,0.0318487,3.50231
2,1,Potentiostatic EIS,78.7718,3.50232,0.00120473,223.872,0.026352,-5.20979,0.0262432,0.00239283,1.48671,0.364118,0.00959524,8,0.0357347,3.50232
2,1,Potentiostatic EIS,78.8603,3.50232,0.00111269,199.526,0.0266373,-5.43767,0.0265174,0.00252423,1.42458,0.363507,0.00968286,8,0.0400951,3.50232
2,1,Potentiostatic EIS,78.9534,3.50232,0.0012335,177.828,0.0269253,-5.64282,0.0267948,0.00264747,1.31385,0.362074,0.00974893,8,0.0449874,3.50232
2,1,Potentiostatic EIS,79.0528,3.50232,0.00110593,158.489,0.0272079,-5.8152,0.0270679,0.00275671,1.22312,0.360269,0.00980218,8,0.0504767,3.50232
2,1,Potentiostatic EIS,79.1581,3.50233,0.000900199,141.253,0.0275089,-5.92666,0.0273618,0.00284044,1.12986,0.357537,0.00983544,8,0.0566359,3.50233
2,1,Potentiostatic EIS,79.2711,3.50232,0.000847734,125.892,0.0278015,-6.01095,0.0276486,0.00291133,1.03478,0.354659,0.00986005,8,0.0635464,3.50232
2,1,Potentiostatic EIS,79.3908,3.50232,0.000758764,112.201,0.0281378,-6.02641,0.0279823,0.0029541,0.954414,0.351162,0.00988094,8,0.0713003,3.50232
2,1,Potentiostatic EIS,79.5191,3.50232,0.000968678,99.9997,0.0284128,-6.08539,0.0282527,0.00301206,0.85801,0.348134,0.00989147,8,0.0800003,3.50232
2,1,Potentiostatic EIS,79.6583,3.50233,0.00120098,89.1248,0.0286896,-6.03897,0.0285304,0.00301828,0.779663,0.345003,0.009898,8,0.0897617,3.50233
2,1,Potentiostatic EIS,79.8092,3.50232,0.000976862,79.4325,0.028988,-5.96239,0.0288311,0.00301114,0.73346,0.341718,0.00990572,8,0.100714,3.50232
2,1,Potentiostatic EIS,79.9739,3.50232,0.00100616,70.7943,0.0292464,-5.90817,0.0290911,0.00301046,0.657376,0.338643,0.00990409,8,0.113003,3.50232
2,1,Potentiostatic EIS,80.1523,3.50232,0.00099357,63.0956,0.0295235,-5.80428,0.0293721,0.00298573,0.605013,0.335617,0.00990859,8,0.126792,3.50232
2,1,Potentiostatic EIS,80.348,3.50232,0.0013695,56.2341,0.0297938,-5.73433,0.0296447,0.00297687,0.524181,0.324341,0.00966335,8,0.142263,3.50232
2,1,Potentiostatic EIS,80.5614,3.50233,0.00108438,50.1186,0.0300738,-5.55007,0.0299328,0.0029086,0.469067,0.322152,0.00968833,8,0.159621,3.50233
2,1,Potentiostatic EIS,80.7962,3.50233,0.0010948,44.6682,0.0303107,-5.42567,0.0301749,0.00286601,0.420856,0.320419,0.0097121,8,0.179098,3.50233
2,1,Potentiostatic EIS,81.0532,3.50232,0.000888304,39.8106,0.0305441,-5.25332,0.0304158,0.0027966,0.380636,0.318641,0.0097326,8,0.200952,3.50232
2,1,Potentiostatic EIS,81.3369,3.50232,0.00127056,35.4812,0.0307501,-5.08178,0.0306293,0.00272377,0.345115,0.317139,0.00975207,8,0.225471,3.50232
2,1,Potentiostatic EIS,81.4792,3.50232,0.000360939,31.6227,0.0309866,-4.92086,0.0308724,0.00265802,0.327465,0.319054,0.00988651,2,0.0632458,3.50232
2,1,Potentiostatic EIS,81.6243,3.50232,0.000705169,28.1838,0.0312101,-4.69852,0.0311053,0.00255651,0.287683,0.317134,0.00989777,2,0.0709628,3.50232
2,1,Potentiostatic EIS,81.7867,3.50232,0.000596139,25.1188,0.0313647,-4.51577,0.0312674,0.00246945,0.292945,0.307252,0.00963681,2,0.0796217,3.50232
2,1,Potentiostatic EIS,81.9671,3.50233,0.00094772,22.3871,0.0315661,-4.33672,0.0314757,0.00238696,0.258269,0.307063,0.00969281,2,0.0893371,3.50233
2,1,Potentiostatic EIS,82.1671,3.50233,0.00068532,19.9525,0.0317211,-4.12613,0.0316389,0.00228241,0.26049,0.307166,0.00974366,2,0.100238,3.50233
2,1,Potentiostatic EIS,82.3898,3.50232,0.000557732,17.7828,0.0318897,-3.92733,0.0318148,0.00218417,0.235918,0.306638,0.00977869,2,0.112468,3.50232
2,1,Potentiostatic EIS,82.6372,3.50232,0.000534234,15.8489,0.0320945,-3.74009,0.0320261,0.00209354,0.222521,0.305759,0.00981326,2,0.126192,3.50232
2,1,Potentiostatic EIS,82.9125,3.50233,0.000862404,14.1253,0.0322259,-3.55266,0.032164,0.00199691,0.217791,0.305338,0.00983977,2,0.14159,3.50233
2,1,Potentiostatic EIS,83.2192,3.50232,0.00056482,12.5892,0.0323425,-3.3705,0.0322865,0.00190149,0.21935,0.3048,0.00985804,2,0.158866,3.50232
2,1,Potentiostatic EIS,83.5614,3.50232,0.000386866,11.2201,0.03245,-3.20934,0.0323991,0.00181669,0.285991,0.304306,0.00987475,2,0.178251,3.50232
2,1,Potentiostatic EIS,83.9434,3.50232,0.000332266,9.99996,0.0325558,-3.06042,0.0325093,0.00173812,0.811848,0.303939,0.00989492,2,0.200001,3.50232
2,1,Potentiostatic EIS,84.3694,3.50231,-0.000351792,8.91248,0.0326374,-2.89676,0.0325956,0.00164937,0.250254,0.303216,0.00989615,2,0.224404,3.50231
2,1,Potentiostatic EIS,84.8449,3.50232,0.000148832,7.94325,0.0327334,-2.75112,0.0326957,0.00157113,0.20742,0.302545,0.00990336,2,0.251786,3.50232
2,1,Potentiostatic EIS,85.3768,3.50232,-4.3042e-05,7.07944,0.0328231,-2.62921,0.0327886,0.00150567,0.223931,0.302163,0.00991794,2,0.282508,3.50232
2,1,Potentiostatic EIS,85.9719,3.50232,0.00016265,6.30955,0.0329192,-2.51479,0.0328875,0.00144441,0.212043,0.301303,0.00991863,2,0.31698,3.50232
2,1,Potentiostatic EIS,86.6375,3.50232,-0.000174869,5.62339,0.0329675,-2.40575,0.0329385,0.00138384,0.225097,0.300992,0.00992295,2,0.355657,3.50232
2,1,Potentiostatic EIS,87.3808,3.50233,-4.63905e-05,5.01185,0.033047,-2.28778,0.0330207,0.00131919,0.216597,0.300428,0.00992824,2,0.399054,3.50233
2,1,Potentiostatic EIS,88.2133,3.50233,1.3125e-05,4.46682,0.0330866,-2.21174,0.033062,0.0012769,0.200127,0.300328,0.00993684,2,0.447745,3.50233
2,1,Potentiostatic EIS,89.1451,3.50232,-0.000186595,3.98106,0.0331528,-2.13568,0.0331298,0.00123547,0.207753,0.299786,0.00993874,2,0.502378,3.50232
2,1,Potentiostatic EIS,90.1875,3.50232,-0.000261004,3.54812,0.0332231,-2.05186,0.0332018,0.00118952,0.209437,0.298999,0.00993368,2,0.563679,3.50232
2,1,Potentiostatic EIS,91.3521,3.50232,-0.000220742,3.16227,0.0332849,-1.9861,0.0332649,0.00115355,0.193262,0.298733,0.00994331,2,0.632458,3.50232
2,1,Potentiostatic EIS,92.6572,3.50232,-0.000155785,2.81837,0.0333567,-1.93594,0.0333377,0.00112686,0.212234,0.298035,0.00994148,2,0.70963,3.50232
2,1,Potentiostatic EIS,94.1195,3.50233,-0.000208049,2.51188,0.033401,-1.89524,0.0333827,0.00110464,0.193867,0.297482,0.00993619,2,0.796217,3.50233
2,1,Potentiostatic EIS,95.7596,3.50233,-5.94261e-05,2.23872,0.0334842,-1.86655,0.0334664,0.00109064,0.197921,0.296955,0.00994325,2,0.893369,3.50233
2,1,Potentiostatic EIS,97.5972,3.50232,-0.000220262,1.99526,0.0334982,-1.85623,0.0334806,0.00108506,0.211519,0.29675,0.00994058,2,1.00238,3.50232
2,1,Potentiostatic EIS,99.658,3.50233,-0.000387697,1.77827,0.0335562,-1.81501,0.0335394,0.00106282,0.182001,0.296225,0.00994019,2,1.12469,3.50233
2,1,Potentiostatic EIS,101.968,3.50233,-0.000205795,1.58489,0.0336211,-1.83083,0.0336039,0.00107414,0.189102,0.295807,0.00994533,2,1.26192,3.50233
2,1,Potentiostatic EIS,104.557,3.50233,-0.000257008,1.41253,0.0336827,-1.82328,0.0336656,0.00107168,0.192328,0.295297,0.00994641,2,1.4159,3.50233
2,1,Potentiostatic EIS,107.461,3.50233,-0.000391178,1.25892,0.0337444,-1.81763,0.0337275,0.00107032,0.180348,0.294679,0.0099438,2,1.58866,3.50233
2,1,Potentiostatic EIS,110.718,3.50233,-0.000215279,1.12202,0.0337484,-1.82951,0.0337312,0.00107744,0.215291,0.294615,0.00994277,2,1.78251,3.50233
2,1,Potentiostatic EIS,114.37,3.50232,-0.000418085,0.999995,0.033831,-1.85823,0.0338133,0.00109702,0.182489,0.294077,0.00994892,2,2.00001,3.50232
2,1,Potentiostatic EIS,118.465,3.50232,-0.000556186,0.891248,0.0338747,-1.91343,0.0338559,0.00113106,0.186749,0.293713,0.00994945,2,2.24404,3.50232
2,1,Potentiostatic EIS,123.059,3.50233,-0.000248073,0.794324,0.0339265,-1.96626,0.0339065,0.00116405,0.188777,0.293227,0.00994819,2,2.51786,3.50233
2,1,Potentiostatic EIS,128.213,3.50232,-0.000353777,0.707944,0.0339644,-1.98292,0.0339441,0.00117523,0.226733,0.292864,0.00994695,2,2.82508,3.50232
2,1,Potentiostatic EIS,133.992,3.50233,-0.000345856,0.630955,0.034046,-2.05166,0.0340241,0.00121887,0.212705,0.292201,0.0099483,2,3.1698,3.50233
2,1,Potentiostatic EIS,140.478,3.50233,-7.96307e-06,0.562339,0.0340577,-2.13808,0.034034,0.00127062,0.198406,0.292066,0.00994711,2,3.55657,3.50233
2,1,Potentiostatic EIS,147.751,3.50234,-0.000286019,0.501186,0.0341448,-2.20192,0.0341196,0.00131189,0.180945,0.291312,0.00994679,2,3.99054,3.50234
2,1,Potentiostatic EIS,155.912,3.50233,-0.000594798,0.446681,0.0342576,-2.29322,0.0342302,0.00137077,0.219956,0.290375,0.0099476,2,4.47747,3.50233
2,1,Potentiostatic EIS,165.067,3.50232,-0.000297031,0.398106,0.0342845,-2.39746,0.0342545,0.00143417,0.215796,0.289966,0.00994137,2,5.02379,3.50232
2,1,Potentiostatic EIS,175.336,3.50233,-0.000258367,0.354812,0.0345225,-2.50144,0.0344896,0.00150672,0.261603,0.288291,0.00995259,2,5.63679,3.50233
2,1,Potentiostatic EIS,186.851,3.50233,-0.000216563,0.316226,0.034527,-2.56884,0.0344923,0.00154749,0.209165,0.288178,0.00994994,2,6.32458,3.50233
2,1,Potentiostatic EIS,199.77,3.50233,-9.72825e-05,0.281837,0.0346724,-2.69904,0.0346339,0.00163272,0.179615,0.287073,0.00995353,2,7.09631,3.50233
2,1,Potentiostatic EIS,214.265,3.50233,-0.00062931,0.251188,0.0347315,-2.82164,0.0346894,0.00170973,0.220308,0.286329,0.00994463,2,7.96218,3.50233
2,1,Potentiostatic EIS,230.528,3.50232,-0.000131361,0.223871,0.0348257,-3.00312,0.0347778,0.00182453,0.184898,0.285753,0.00995151,2,8.9337,3.50232
2,1,Potentiostatic EIS,248.771,3.50232,-0.000165393,0.199525,0.034913,-3.13759,0.0348607,0.00191093,0.194631,0.285144,0.0099552,2,10.0238,3.50232
2,1,Potentiostatic EIS,269.237,3.50232,-0.000551704,0.177827,0.0350484,-3.29421,0.0349905,0.00201399,0.198249,0.283849,0.00994846,2,11.2469,3.50232
2,1,Potentiostatic EIS,292.207,3.50233,8.20215e-05,0.158489,0.0351601,-3.46707,0.0350957,0.0021263,0.198009,0.283132,0.00995496,2,12.6192,3.50233
2,1,Potentiostatic EIS,317.972,3.50233,-7.06399e-05,0.141253,0.0352181,-3.68403,0.0351454,0.00226291,0.187951,0.282653,0.00995455,2,14.159,3.50233
2,1,Potentiostatic EIS,346.884,3.50234,-0.000224736,0.125892,0.0353046,-3.88646,0.0352234,0.00239293,0.206744,0.281783,0.00994822,2,15.8867,3.50234
2,1,Potentiostatic EIS,379.317,3.50234,0.000291575,0.112201,0.0353852,-4.13135,0.0352932,0.00254926,0.165282,0.28116,0.00994889,2,17.8251,3.50234
2,1,Potentiostatic EIS,415.708,3.50234,-9.38164e-05,0.0999997,0.0355,-4.38812,0.0353959,0.00271619,0.181762,0.280438,0.00995555,2,20.0001,3.50234
2,1,Potentiostatic EIS,456.537,3.50233,-8.61995e-05,0.0891246,0.0356457,-4.63034,0.0355293,0.00287756,0.205332,0.279096,0.00994857,2,22.4405,3.50233
2,1,Potentiostatic EIS,502.337,3.50233,0.00030098,0.0794325,0.0357964,-4.91873,0.0356646,0.00306928,0.183447,0.277958,0.00994989,2,25.1786,3.50233
2,1,Potentiostatic EIS,553.736,3.50233,-0.000234712,0.0707942,0.0359643,-5.19784,0.0358164,0.00325818,0.22154,0.276668,0.00995018,2,28.2509,3.50233
2,1,Potentiostatic EIS,611.392,3.50232,8.42749e-05,0.0630955,0.036135,-5.57405,0.0359642,0.00350987,0.188404,0.275387,0.00995111,2,31.698,3.50232
2,1,Potentiostatic EIS,676.08,3.50232,0.000189886,0.0562339,0.0363202,-5.93116,0.0361257,0.00375309,0.178111,0.274002,0.00995182,2,35.5657,3.50232
2,1,Potentiostatic EIS,748.663,3.50234,-9.35294e-05,0.0501185,0.0364856,-6.32954,0.0362632,0.00402242,0.173332,0.272792,0.00995295,2,39.9054,3.50234
2,1,Potentiostatic EIS,821.415,3.50233,-3.48521e-05,0.05,0.0364268,-6.32413,0.0362051,0.00401251,0.165803,0.273351,0.00995728,2,40,3.50233