File: Data/P190_03/EIS_06_P190_03_3/2_EIS_06_P190_03_3 20230921 112730.csv
Step number,Repeats,Step name,Elapsed Time  (s),DC Working Electrode (V),DC Current (A),Frequency (Hz),|Z| (Ohms),Phase (deg),Z' (Ohms),-Z" (Ohms),THD (%),Amplitude (A),Amplitude (V),No of Cycles,Duration of Each Frequency (s),IR Compensated DC Working Electrode (V)
2,1,Potentiostatic EIS,60.2977,3.53193,-0.0157838,1000000,2.11857,87.5417,0.0908712,-2.11662,1.00036,0.00471321,0.0099851,1430,0.00143,3.53193
2,1,Potentiostatic EIS,60.5453,3.53185,-0.0176735,794328,1.70175,87.1193,0.0855227,-1.6996,1.14126,0.00586966,0.00998871,1445,0.00181915,3.53185
2,1,Potentiostatic EIS,60.8051,3.53182,-0.0187705,630957.375,1.35868,86.5493,0.0817785,-1.35622,1.21455,0.0073508,0.00998741,1355,0.00214753,3.53182
2,1,Potentiostatic EIS,61.0758,3.53176,-0.0204637,501187.25,1.08618,86.5082,0.0661543,-1.08417,1.27036,0.00917823,0.00996932,1385,0.00276344,3.53176
2,1,Potentiostatic EIS,61.3596,3.53168,-0.0224017,398107,0.869665,85.7017,0.0651809,-0.867219,1.47028,0.0113242,0.00984842,1400,0.00351664,3.53168
2,1,Potentiostatic EIS,61.6906,3.53162,-0.0232555,316228,0.694149,85.2585,0.0573782,-0.691774,1.37599,0.0143179,0.00993882,1370,0.00433232,3.53162
2,1,Potentiostatic EIS,62.0548,3.53153,-0.0252749,251189,0.558926,84.2791,0.055715,-0.556143,1.4047,0.017848,0.0099757,1340,0.00533464,3.53153
2,1,Potentiostatic EIS,62.6402,3.53145,-0.0273413,199526,0.446067,83.8637,0.0476819,-0.443511,1.68844,0.0222852,0.00994066,1355,0.00679109,3.53145
2,1,Potentiostatic EIS,63.1027,3.53136,-0.0295224,158489,0.359209,82.7188,0.0455255,-0.356312,1.71403,0.0275301,0.00988914,1360,0.00858102,3.53136
2,1,Potentiostatic EIS,63.6811,3.53123,-0.0328079,125893,0.289583,81.8133,0.0412366,-0.286632,1.75043,0.0343798,0.00995584,1370,0.0108823,3.53123
2,1,Potentiostatic EIS,64.3513,3.53112,-0.03507,100000,0.232331,80.5851,0.0380053,-0.229202,2.0165,0.0428775,0.0099618,1370,0.0137,3.53112
2,1,Potentiostatic EIS,65.0826,3.53105,-0.0369539,79432.8,0.18722,79.0416,0.0355898,-0.183806,2.61581,0.0533772,0.00999329,1365,0.0171843,3.53105
2,1,Potentiostatic EIS,65.4655,3.53162,-0.0211155,63095.7,0.15071,77.5077,0.0325997,-0.147142,4.16402,0.0661532,0.00996993,1290,0.0204451,3.53162
2,1,Potentiostatic EIS,65.6849,3.53159,-0.0211489,50118.75,0.121928,75.2419,0.0310599,-0.117906,4.65532,0.0821186,0.0100126,1025,0.0204514,3.53159
2,1,Potentiostatic EIS,65.9052,3.5316,-0.0210501,39810.7,0.099049,72.6392,0.029555,-0.0945368,5.26845,0.10124,0.0100277,815,0.0204719,3.5316
2,1,Potentiostatic EIS,66.1271,3.53159,-0.0211411,31622.8,0.0813028,68.9619,0.0291868,-0.0758833,5.87302,0.124295,0.0101055,645,0.0203967,3.53159
2,1,Potentiostatic EIS,66.3469,3.53191,-0.0127088,25118.9,0.0669143,65.1285,0.0281431,-0.0607082,6.18668,0.151333,0.0101261,510,0.0203034,3.53191
2,1,Potentiostatic EIS,66.5665,3.53197,-0.011112,19952.6,0.0555905,60.3614,0.0274911,-0.0483172,6.66961,0.181887,0.0101113,405,0.0202981,3.53197
2,1,Potentiostatic EIS,66.7859,3.53199,-0.0101904,15848.9,0.0468249,55.2219,0.0267089,-0.0384604,6.75523,0.214529,0.0100454,320,0.0201906,3.53199
2,1,Potentiostatic EIS,67.0075,3.53206,-0.00895084,12589.2,0.0405864,49.2886,0.0264724,-0.0307647,6.60896,0.247179,0.010032,255,0.0202554,3.53206
2,1,Potentiostatic EIS,67.3121,3.53213,-0.00793822,9999.98,0.0359176,43.2277,0.0261709,-0.0245999,2.94437,0.278014,0.00998557,307,0.0307001,3.53213
2,1,Potentiostatic EIS,67.5241,3.53215,-0.00751022,7943.27,0.0324659,37.6903,0.0256911,-0.0198494,3.51721,0.285824,0.00927954,244,0.0307178,3.53215
2,1,Potentiostatic EIS,67.7355,3.53217,-0.00705026,6309.57,0.0290417,31.1048,0.0248662,-0.0150031,3.8334,0.364662,0.0105904,193,0.0305885,3.53217
2,1,Potentiostatic EIS,67.9472,3.53218,-0.00678152,5011.87,0.0278157,23.9383,0.025423,-0.0112863,3.80904,0.373226,0.0103815,153,0.0305276,3.53218
2,1,Potentiostatic EIS,68.1587,3.53221,-0.00600706,3981.07,0.0270806,18.5706,0.0256705,-0.00862445,3.6484,0.375677,0.0101735,122,0.0306451,3.53221
2,1,Potentiostatic EIS,68.3277,3.53224,-0.0053153,3162.27,0.026677,14.158,0.0258667,-0.00652511,3.46744,0.366954,0.00978924,97,0.0306742,3.53224
2,1,Potentiostatic EIS,68.4948,3.53223,-0.00554923,2511.88,0.0264557,10.34,0.0260261,-0.00474849,3.06256,0.393823,0.0104189,77,0.0306543,3.53223
2,1,Potentiostatic EIS,68.6637,3.53228,-0.00426095,1995.26,0.0264149,7.1825,0.0262076,-0.00330266,2.73,0.38648,0.0102088,61,0.0305725,3.53228
2,1,Potentiostatic EIS,68.7903,3.53228,-0.00435395,1584.89,0.0265156,4.49103,0.0264342,-0.00207625,2.819,0.338816,0.00898393,48,0.030286,3.53228
2,1,Potentiostatic EIS,68.9131,3.53228,-0.00449852,1258.92,0.0267006,2.37831,0.0266776,-0.00110801,2.43005,0.389551,0.0104012,38,0.0301845,3.53228
2,1,Potentiostatic EIS,69.0362,3.53228,-0.004185,999.999,0.0269739,0.556683,0.0269726,-0.000262073,2.35226,0.379417,0.0102343,30,0.03,3.53228
2,1,Potentiostatic EIS,69.1597,3.53229,-0.00426327,794.328,0.0273497,-0.908676,0.0273463,0.000433731,2.29083,0.370408,0.0101306,24,0.0302142,3.53229
2,1,Potentiostatic EIS,69.2833,3.53229,-0.00418217,630.956,0.0277549,-2.05612,0.027737,0.0009958,2.21104,0.362311,0.0100559,19,0.030113,3.53229
2,1,Potentiostatic EIS,69.4064,3.53229,-0.00408464,501.187,0.0281762,-3.06542,0.0281359,0.00150676,2.10444,0.355895,0.0100278,15,0.029929,3.53229
2,1,Potentiostatic EIS,69.4853,3.5323,-0.00378932,398.107,0.028662,-3.8188,0.0285983,0.00190892,2.01009,0.310328,0.00889461,12,0.0301427,3.5323
2,1,Potentiostatic EIS,69.5642,3.53229,-0.00386507,316.228,0.0291727,-4.41916,0.0290859,0.00224783,1.8263,0.319362,0.00931665,9,0.0284605,3.53229
2,1,Potentiostatic EIS,69.6446,3.53231,-0.00358513,251.189,0.0297052,-4.84657,0.029599,0.00250972,1.60087,0.322555,0.00958156,8,0.0318486,3.53231
2,1,Potentiostatic EIS,69.7326,3.53231,-0.00367319,199.526,0.0302585,-5.12636,0.0301374,0.00270367,1.44572,0.321839,0.00973836,8,0.0400951,3.53231
2,1,Potentiostatic EIS,69.8318,3.53231,-0.00353108,158.489,0.030807,-5.31339,0.0306746,0.00285283,1.21577,0.318968,0.00982645,8,0.0504766,3.53231
2,1,Potentiostatic EIS,69.9444,3.53231,-0.00349329,125.892,0.0313466,-5.36892,0.0312091,0.00293305,1.01402,0.314902,0.00987111,8,0.0635464,3.53231
2,1,Potentiostatic EIS,70.0731,3.5323,-0.00346575,100,0.0319112,-5.34925,0.0317722,0.00297496,0.837369,0.310148,0.0098972,8,0.08,3.5323
2,1,Potentiostatic EIS,70.2241,3.53229,-0.00378195,79.4327,0.0324604,-5.20586,0.0323265,0.00294527,0.682806,0.305379,0.00991272,8,0.100714,3.53229
2,1,Potentiostatic EIS,70.4033,3.5323,-0.00380947,63.0956,0.0329645,-5.04677,0.0328367,0.00289985,0.568326,0.30071,0.00991273,8,0.126792,3.5323
2,1,Potentiostatic EIS,70.6172,3.53231,-0.00318282,50.1186,0.0334535,-4.82248,0.033335,0.00281239,0.456541,0.288293,0.00964439,8,0.159621,3.53231
2,1,Potentiostatic EIS,70.8765,3.5323,-0.00371117,39.8107,0.0338995,-4.51049,0.0337945,0.00266591,0.36786,0.286134,0.0096998,8,0.200951,3.5323
2,1,Potentiostatic EIS,71.0197,3.53231,-0.00389275,31.6228,0.0343194,-4.24744,0.0342251,0.00254183,0.338663,0.287633,0.00987141,2,0.0632456,3.53231
2,1,Potentiostatic EIS,71.1819,3.53231,-0.00378049,25.1188,0.0347136,-3.86275,0.0346348,0.00233854,0.306304,0.277522,0.00963375,2,0.0796217,3.53231
2,1,Potentiostatic EIS,71.3816,3.53231,-0.00366529,19.9526,0.0350501,-3.5097,0.0349844,0.00214568,0.281615,0.278092,0.00974719,2,0.100238,3.53231
2,1,Potentiostatic EIS,71.6289,3.53231,-0.00370455,15.8489,0.0353433,-3.17492,0.035289,0.00195747,0.266607,0.277594,0.0098111,2,0.126192,3.53231
2,1,Potentiostatic EIS,71.9357,3.53231,-0.00358868,12.5892,0.0355792,-2.84164,0.0355354,0.00176386,0.254579,0.277155,0.00986095,2,0.158866,3.53231
2,1,Potentiostatic EIS,72.3172,3.5323,-0.00394905,9.99998,0.0358119,-2.57194,0.0357758,0.00160702,0.27674,0.27634,0.00989631,2,0.2,3.5323
2,1,Potentiostatic EIS,72.7929,3.53231,-0.00384259,7.94328,0.0359916,-2.31356,0.0359623,0.00145292,0.238756,0.275565,0.00991801,2,0.251785,3.53231
2,1,Potentiostatic EIS,73.3878,3.53231,-0.00420872,6.30957,0.0361188,-2.08669,0.0360948,0.00131514,0.240552,0.274791,0.0099251,2,0.316979,3.53231
2,1,Potentiostatic EIS,74.1302,3.53232,-0.00420426,5.01186,0.0362408,-1.89494,0.036221,0.00119837,0.233734,0.273947,0.00992801,2,0.399053,3.53232
2,1,Potentiostatic EIS,75.0611,3.53231,-0.00427855,3.98106,0.0363547,-1.74587,0.0363379,0.0011076,0.224847,0.273469,0.0099419,2,0.502378,3.53231
2,1,Potentiostatic EIS,76.2259,3.53232,-0.00440488,3.16227,0.0364477,-1.63864,0.0364328,0.00104225,0.23215,0.272903,0.00994668,2,0.632458,3.53232
2,1,Potentiostatic EIS,77.6892,3.53231,-0.00421288,2.51188,0.036535,-1.5663,0.0365213,0.000998637,0.21335,0.272281,0.00994777,2,0.796216,3.53231
2,1,Potentiostatic EIS,79.528,3.53231,-0.00437195,1.99526,0.0366398,-1.52208,0.0366269,0.000973235,0.227167,0.271321,0.00994114,2,1.00238,3.53231
2,1,Potentiostatic EIS,81.8382,3.53231,-0.00444347,1.58489,0.036693,-1.50555,0.0366803,0.000964061,0.240049,0.271109,0.00994776,2,1.26192,3.53231
2,1,Potentiostatic EIS,84.7426,3.53231,-0.00423159,1.25892,0.0367704,-1.52042,0.0367575,0.000975636,0.231562,0.270647,0.00995181,2,1.58866,3.53231
2,1,Potentiostatic EIS,88.3947,3.53232,-0.00395841,0.999998,0.0368809,-1.54475,0.0368675,0.000994226,0.222449,0.269637,0.00994445,2,2,3.53232
2,1,Potentiostatic EIS,92.9891,3.53231,-0.00424811,0.794327,0.0369823,-1.59113,0.036968,0.00102689,0.223082,0.268957,0.00994665,2,2.51785,3.53231
2,1,Potentiostatic EIS,98.7673,3.5323,-0.00384618,0.630956,0.0371126,-1.71348,0.037096,0.00110972,0.228557,0.2682,0.00995359,2,3.16979,3.5323
2,1,Potentiostatic EIS,106.042,3.53231,-0.00345521,0.501186,0.0371852,-1.84887,0.0371659,0.00119971,0.24978,0.267487,0.00994654,2,3.99054,3.53231
2,1,Potentiostatic EIS,115.196,3.53231,-0.00374289,0.398106,0.0372984,-2.00734,0.0372755,0.00130647,0.241993,0.266782,0.00995054,2,5.02379,3.53231
2,1,Potentiostatic EIS,126.712,3.5323,-0.00322423,0.316227,0.0373721,-2.21172,0.0373443,0.00144227,0.22517,0.266201,0.00994848,2,6.32457,3.5323
2,1,Potentiostatic EIS,141.206,3.5323,-0.0027962,0.251188,0.0374588,-2.46706,0.0374241,0.00161241,0.217579,0.265629,0.00995012,2,7.96216,3.5323
2,1,Potentiostatic EIS,159.45,3.53231,-0.00305331,0.199526,0.0375922,-2.73051,0.0375495,0.00179083,0.231735,0.264658,0.00994906,2,10.0238,3.53231
2,1,Potentiostatic EIS,182.421,3.5323,-0.00193053,0.158489,0.0377687,-3.10265,0.0377134,0.00204423,0.255513,0.26343,0.0099494,2,12.6192,3.5323
2,1,Potentiostatic EIS,211.334,3.5323,-0.00186825,0.125892,0.0379424,-3.43052,0.0378744,0.0022704,0.20567,0.262289,0.00995187,2,15.8866,3.5323
2,1,Potentiostatic EIS,247.725,3.53231,-0.00194496,0.0999997,0.0381593,-3.88567,0.0380716,0.00258589,0.213682,0.260928,0.00995687,2,20.0001,3.53231